#                                                           
#  __  __   ________   ___ __ __    _______   ______        
# /_/\/_/\ /_______/\ /__//_//_/\ /_______/\ /_____/\       
# \ \ \ \ \\::: _  \ \\::\| \| \ \\::: _  \ \\:::_ \ \      
#  \:\_\ \ \\::(_)  \ \\:.      \ \\::(_)  \/_\:\ \ \ \     
#   \::::_\/ \:: __  \ \\:.\-/\  \ \\::  _  \ \\:\ \ \ \    
#     \::\ \  \:.\ \  \ \\. \  \  \ \\::(_)  \ \\:\_\ \ \   
#      \__\/   \__\/\__\/ \__\/ \__\/ \_______\/ \_____\/   
#                                                           
#                                                           
#        Version 4.3.0 Revision 15341 Hash c146fb2          
#                      MPI+SLK Build                        
#                http://www.yambo-code.org                  
#
# Absorption @ Q(2) [iku] : 0.500000  0.250000  0.000000
#
#
# - Energies      are Teter 93(XC)
# - Wavefunctions are Teter 93(XC)
#
# - The Green`s function is Resonant -
#
#   BSK|Identifier              :1700
#      |Dimension               :96
#      |Bands                   :3 - 10
#      |Exchange           [res]: yes
#      |Correlation        [res]: no
#      |Kernel`s coupling       : no
#      |Exchange           [cpl]: no
#      |Correlation        [cpl]: no
#      |W interaction is bare   : no
#      |ALDA kernel in R-space  : no
#      |RL vectors    [exchange]:63
#      |E/h energy range    [ev]:-1.000000 - -1.000000
#      |Coupling range     [o/o]: 100.0000 -  100.0000
#
#    E/ev[1]      EPS-Im[2]    EPS-Re[3]    EPSo-Im[4]   EPSo-Re[5]
#
   -10.00       0.6834E-3     1.121       0.7494E-3     1.126   
   -9.990       0.6842E-3     1.121       0.7503E-3     1.126   
   -9.980       0.6850E-3     1.121       0.7512E-3     1.126   
   -9.970       0.6857E-3     1.121       0.7522E-3     1.126   
   -9.960       0.6865E-3     1.121       0.7531E-3     1.126   
   -9.950       0.6873E-3     1.121       0.7540E-3     1.127   
   -9.940       0.6881E-3     1.121       0.7549E-3     1.127   
   -9.930       0.6889E-3     1.121       0.7558E-3     1.127   
   -9.920       0.6897E-3     1.121       0.7567E-3     1.127   
   -9.910       0.6905E-3     1.121       0.7576E-3     1.127   
   -9.900       0.6913E-3     1.121       0.7586E-3     1.127   
   -9.890       0.6921E-3     1.121       0.7595E-3     1.127   
   -9.880       0.6929E-3     1.122       0.7604E-3     1.127   
   -9.870       0.6937E-3     1.122       0.7613E-3     1.127   
   -9.860       0.6945E-3     1.122       0.7623E-3     1.127   
   -9.850       0.6953E-3     1.122       0.7632E-3     1.127   
   -9.840       0.6961E-3     1.122       0.7641E-3     1.127   
   -9.830       0.6969E-3     1.122       0.7650E-3     1.127   
   -9.820       0.6977E-3     1.122       0.7660E-3     1.128   
   -9.810       0.6985E-3     1.122       0.7669E-3     1.128   
   -9.800       0.6993E-3     1.122       0.7679E-3     1.128   
   -9.790       0.7001E-3     1.122       0.7688E-3     1.128   
   -9.780       0.7010E-3     1.122       0.7697E-3     1.128   
   -9.770       0.7018E-3     1.122       0.7707E-3     1.128   
   -9.760       0.7026E-3     1.122       0.7716E-3     1.128   
   -9.750       0.7034E-3     1.122       0.7726E-3     1.128   
   -9.740       0.7042E-3     1.123       0.7735E-3     1.128   
   -9.730       0.7050E-3     1.123       0.7745E-3     1.128   
   -9.720       0.7059E-3     1.123       0.7754E-3     1.128   
   -9.710       0.7067E-3     1.123       0.7764E-3     1.128   
   -9.700       0.7075E-3     1.123       0.7773E-3     1.128   
   -9.690       0.7083E-3     1.123       0.7783E-3     1.129   
   -9.680       0.7092E-3     1.123       0.7792E-3     1.129   
   -9.670       0.7100E-3     1.123       0.7802E-3     1.129   
   -9.660       0.7108E-3     1.123       0.7812E-3     1.129   
   -9.650       0.7117E-3     1.123       0.7821E-3     1.129   
   -9.640       0.7125E-3     1.123       0.7831E-3     1.129   
   -9.630       0.7133E-3     1.123       0.7840E-3     1.129   
   -9.620       0.7142E-3     1.123       0.7850E-3     1.129   
   -9.610       0.7150E-3     1.123       0.7860E-3     1.129   
   -9.600       0.7158E-3     1.124       0.7870E-3     1.129   
   -9.590       0.7167E-3     1.124       0.7879E-3     1.129   
   -9.580       0.7175E-3     1.124       0.7889E-3     1.129   
   -9.570       0.7184E-3     1.124       0.7899E-3     1.129   
   -9.560       0.7192E-3     1.124       0.7909E-3     1.130   
   -9.550       0.7201E-3     1.124       0.7919E-3     1.130   
   -9.540       0.7209E-3     1.124       0.7928E-3     1.130   
   -9.530       0.7218E-3     1.124       0.7938E-3     1.130   
   -9.520       0.7226E-3     1.124       0.7948E-3     1.130   
   -9.510       0.7235E-3     1.124       0.7958E-3     1.130   
   -9.500       0.7243E-3     1.124       0.7968E-3     1.130   
   -9.490       0.7252E-3     1.124       0.7978E-3     1.130   
   -9.480       0.7260E-3     1.124       0.7988E-3     1.130   
   -9.470       0.7269E-3     1.124       0.7998E-3     1.130   
   -9.460       0.7278E-3     1.125       0.8008E-3     1.130   
   -9.450       0.7286E-3     1.125       0.8018E-3     1.130   
   -9.440       0.7295E-3     1.125       0.8028E-3     1.131   
   -9.430       0.7303E-3     1.125       0.8038E-3     1.131   
   -9.420       0.7312E-3     1.125       0.8048E-3     1.131   
   -9.410       0.7321E-3     1.125       0.8058E-3     1.131   
   -9.400       0.7329E-3     1.125       0.8068E-3     1.131   
   -9.390       0.7338E-3     1.125       0.8078E-3     1.131   
   -9.380       0.7347E-3     1.125       0.8088E-3     1.131   
   -9.370       0.7356E-3     1.125       0.8098E-3     1.131   
   -9.360       0.7364E-3     1.125       0.8109E-3     1.131   
   -9.350       0.7373E-3     1.125       0.8119E-3     1.131   
   -9.340       0.7382E-3     1.125       0.8129E-3     1.131   
   -9.330       0.7391E-3     1.125       0.8139E-3     1.131   
   -9.320       0.7400E-3     1.126       0.8150E-3     1.131   
   -9.310       0.7408E-3     1.126       0.8160E-3     1.132   
   -9.300       0.7417E-3     1.126       0.8170E-3     1.132   
   -9.290       0.7426E-3     1.126       0.8180E-3     1.132   
   -9.280       0.7435E-3     1.126       0.8191E-3     1.132   
   -9.270       0.7444E-3     1.126       0.8201E-3     1.132   
   -9.260       0.7453E-3     1.126       0.8212E-3     1.132   
   -9.250       0.7462E-3     1.126       0.8222E-3     1.132   
   -9.240       0.7471E-3     1.126       0.8232E-3     1.132   
   -9.230       0.7480E-3     1.126       0.8243E-3     1.132   
   -9.220       0.7489E-3     1.126       0.8253E-3     1.132   
   -9.210       0.7498E-3     1.126       0.8264E-3     1.132   
   -9.200       0.7507E-3     1.126       0.8274E-3     1.132   
   -9.190       0.7516E-3     1.127       0.8285E-3     1.133   
   -9.180       0.7525E-3     1.127       0.8295E-3     1.133   
   -9.170       0.7534E-3     1.127       0.8306E-3     1.133   
   -9.160       0.7543E-3     1.127       0.8316E-3     1.133   
   -9.150       0.7552E-3     1.127       0.8327E-3     1.133   
   -9.140       0.7561E-3     1.127       0.8338E-3     1.133   
   -9.130       0.7570E-3     1.127       0.8348E-3     1.133   
   -9.120       0.7580E-3     1.127       0.8359E-3     1.133   
   -9.110       0.7589E-3     1.127       0.8370E-3     1.133   
   -9.100       0.7598E-3     1.127       0.8380E-3     1.133   
   -9.090       0.7607E-3     1.127       0.8391E-3     1.133   
   -9.080       0.7616E-3     1.127       0.8402E-3     1.133   
   -9.070       0.7626E-3     1.127       0.8413E-3     1.134   
   -9.060       0.7635E-3     1.128       0.8423E-3     1.134   
   -9.050       0.7644E-3     1.128       0.8434E-3     1.134   
   -9.040       0.7653E-3     1.128       0.8445E-3     1.134   
   -9.030       0.7663E-3     1.128       0.8456E-3     1.134   
   -9.020       0.7672E-3     1.128       0.8467E-3     1.134   
   -9.010       0.7681E-3     1.128       0.8478E-3     1.134   
   -9.000       0.7691E-3     1.128       0.8488E-3     1.134   
   -8.990       0.7700E-3     1.128       0.8499E-3     1.134   
   -8.980       0.7710E-3     1.128       0.8510E-3     1.134   
   -8.970       0.7719E-3     1.128       0.8521E-3     1.134   
   -8.960       0.7728E-3     1.128       0.8532E-3     1.134   
   -8.950       0.7738E-3     1.128       0.8543E-3     1.135   
   -8.940       0.7747E-3     1.128       0.8554E-3     1.135   
   -8.930       0.7757E-3     1.129       0.8565E-3     1.135   
   -8.920       0.7766E-3     1.129       0.8577E-3     1.135   
   -8.910       0.7776E-3     1.129       0.8588E-3     1.135   
   -8.900       0.7785E-3     1.129       0.8599E-3     1.135   
   -8.890       0.7795E-3     1.129       0.8610E-3     1.135   
   -8.880       0.7804E-3     1.129       0.8621E-3     1.135   
   -8.870       0.7814E-3     1.129       0.8632E-3     1.135   
   -8.860       0.7824E-3     1.129       0.8644E-3     1.135   
   -8.850       0.7833E-3     1.129       0.8655E-3     1.135   
   -8.840       0.7843E-3     1.129       0.8666E-3     1.136   
   -8.830       0.7853E-3     1.129       0.8677E-3     1.136   
   -8.820       0.7862E-3     1.129       0.8689E-3     1.136   
   -8.810       0.7872E-3     1.129       0.8700E-3     1.136   
   -8.800       0.7882E-3     1.130       0.8711E-3     1.136   
   -8.790       0.7891E-3     1.130       0.8723E-3     1.136   
   -8.780       0.7901E-3     1.130       0.8734E-3     1.136   
   -8.770       0.7911E-3     1.130       0.8745E-3     1.136   
   -8.760       0.7921E-3     1.130       0.8757E-3     1.136   
   -8.750       0.7931E-3     1.130       0.8768E-3     1.136   
   -8.740       0.7940E-3     1.130       0.8780E-3     1.136   
   -8.730       0.7950E-3     1.130       0.8791E-3     1.136   
   -8.720       0.7960E-3     1.130       0.8803E-3     1.137   
   -8.710       0.7970E-3     1.130       0.8814E-3     1.137   
   -8.700       0.7980E-3     1.130       0.8826E-3     1.137   
   -8.690       0.7990E-3     1.130       0.8838E-3     1.137   
   -8.680       0.8000E-3     1.130       0.8849E-3     1.137   
   -8.670       0.8010E-3     1.131       0.8861E-3     1.137   
   -8.660       0.8020E-3     1.131       0.8873E-3     1.137   
   -8.650       0.8030E-3     1.131       0.8884E-3     1.137   
   -8.640       0.8040E-3     1.131       0.8896E-3     1.137   
   -8.630       0.8050E-3     1.131       0.8908E-3     1.137   
   -8.620       0.8060E-3     1.131       0.8920E-3     1.137   
   -8.610       0.8070E-3     1.131       0.8931E-3     1.138   
   -8.600       0.8080E-3     1.131       0.8943E-3     1.138   
   -8.590       0.8090E-3     1.131       0.8955E-3     1.138   
   -8.580       0.8100E-3     1.131       0.8967E-3     1.138   
   -8.570       0.8110E-3     1.131       0.8979E-3     1.138   
   -8.560       0.8120E-3     1.131       0.8991E-3     1.138   
   -8.550       0.8131E-3     1.132       0.9003E-3     1.138   
   -8.540       0.8141E-3     1.132       0.9015E-3     1.138   
   -8.530       0.8151E-3     1.132       0.9027E-3     1.138   
   -8.520       0.8161E-3     1.132       0.9039E-3     1.138   
   -8.510       0.8172E-3     1.132       0.9051E-3     1.138   
   -8.500       0.8182E-3     1.132       0.9063E-3     1.139   
   -8.490       0.8192E-3     1.132       0.9075E-3     1.139   
   -8.480       0.8202E-3     1.132       0.9087E-3     1.139   
   -8.470       0.8213E-3     1.132       0.9099E-3     1.139   
   -8.460       0.8223E-3     1.132       0.9111E-3     1.139   
   -8.450       0.8234E-3     1.132       0.9123E-3     1.139   
   -8.440       0.8244E-3     1.132       0.9135E-3     1.139   
   -8.430       0.8254E-3     1.133       0.9148E-3     1.139   
   -8.420       0.8265E-3     1.133       0.9160E-3     1.139   
   -8.410       0.8275E-3     1.133       0.9172E-3     1.139   
   -8.400       0.8286E-3     1.133       0.9185E-3     1.139   
   -8.390       0.8296E-3     1.133       0.9197E-3     1.140   
   -8.380       0.8307E-3     1.133       0.9209E-3     1.140   
   -8.370       0.8317E-3     1.133       0.9222E-3     1.140   
   -8.360       0.8328E-3     1.133       0.9234E-3     1.140   
   -8.350       0.8338E-3     1.133       0.9246E-3     1.140   
   -8.340       0.8349E-3     1.133       0.9259E-3     1.140   
   -8.330       0.8360E-3     1.133       0.9271E-3     1.140   
   -8.320       0.8370E-3     1.133       0.9284E-3     1.140   
   -8.310       0.8381E-3     1.134       0.9296E-3     1.140   
   -8.300       0.8392E-3     1.134       0.9309E-3     1.140   
   -8.290       0.8402E-3     1.134       0.9322E-3     1.140   
   -8.280       0.8413E-3     1.134       0.9334E-3     1.141   
   -8.270       0.8424E-3     1.134       0.9347E-3     1.141   
   -8.260       0.8435E-3     1.134       0.9360E-3     1.141   
   -8.250       0.8445E-3     1.134       0.9372E-3     1.141   
   -8.240       0.8456E-3     1.134       0.9385E-3     1.141   
   -8.230       0.8467E-3     1.134       0.9398E-3     1.141   
   -8.220       0.8478E-3     1.134       0.9410E-3     1.141   
   -8.210       0.8489E-3     1.134       0.9423E-3     1.141   
   -8.200       0.8500E-3     1.134       0.9436E-3     1.141   
   -8.190       0.8511E-3     1.135       0.9449E-3     1.141   
   -8.180       0.8522E-3     1.135       0.9462E-3     1.142   
   -8.170       0.8532E-3     1.135       0.9475E-3     1.142   
   -8.160       0.8543E-3     1.135       0.9488E-3     1.142   
   -8.150       0.8554E-3     1.135       0.9501E-3     1.142   
   -8.140       0.8565E-3     1.135       0.9514E-3     1.142   
   -8.130       0.8577E-3     1.135       0.9527E-3     1.142   
   -8.120       0.8588E-3     1.135       0.9540E-3     1.142   
   -8.110       0.8599E-3     1.135       0.9553E-3     1.142   
   -8.100       0.8610E-3     1.135       0.9566E-3     1.142   
   -8.090       0.8621E-3     1.135       0.9579E-3     1.142   
   -8.080       0.8632E-3     1.135       0.9592E-3     1.142   
   -8.070       0.8643E-3     1.136       0.9605E-3     1.143   
   -8.060       0.8654E-3     1.136       0.9618E-3     1.143   
   -8.050       0.8666E-3     1.136       0.9632E-3     1.143   
   -8.040       0.8677E-3     1.136       0.9645E-3     1.143   
   -8.030       0.8688E-3     1.136       0.9658E-3     1.143   
   -8.020       0.8699E-3     1.136       0.9671E-3     1.143   
   -8.010       0.8711E-3     1.136       0.9685E-3     1.143   
   -8.000       0.8722E-3     1.136       0.9698E-3     1.143   
   -7.990       0.8733E-3     1.136       0.9712E-3     1.143   
   -7.980       0.8745E-3     1.136       0.9725E-3     1.143   
   -7.970       0.8756E-3     1.136       0.9738E-3     1.144   
   -7.960       0.8768E-3     1.137       0.9752E-3     1.144   
   -7.950       0.8779E-3     1.137       0.9765E-3     1.144   
   -7.940       0.8791E-3     1.137       0.9779E-3     1.144   
   -7.930       0.8802E-3     1.137       0.9793E-3     1.144   
   -7.920       0.8814E-3     1.137       0.9806E-3     1.144   
   -7.910       0.8825E-3     1.137       0.9820E-3     1.144   
   -7.900       0.8837E-3     1.137       0.9833E-3     1.144   
   -7.890       0.8848E-3     1.137       0.9847E-3     1.144   
   -7.880       0.8860E-3     1.137       0.9861E-3     1.144   
   -7.870       0.8871E-3     1.137       0.9875E-3     1.145   
   -7.860       0.8883E-3     1.137       0.9888E-3     1.145   
   -7.850       0.8895E-3     1.137       0.9902E-3     1.145   
   -7.840       0.8906E-3     1.138       0.9916E-3     1.145   
   -7.830       0.8918E-3     1.138       0.9930E-3     1.145   
   -7.820       0.8930E-3     1.138       0.9944E-3     1.145   
   -7.810       0.8942E-3     1.138       0.9958E-3     1.145   
   -7.800       0.8953E-3     1.138       0.9972E-3     1.145   
   -7.790       0.8965E-3     1.138       0.9986E-3     1.145   
   -7.780       0.8977E-3     1.138       0.1000E-2     1.145   
   -7.770       0.8989E-3     1.138       0.1001E-2     1.145   
   -7.760       0.9001E-3     1.138       0.1003E-2     1.146   
   -7.750       0.9013E-3     1.138       0.1004E-2     1.146   
   -7.740       0.9025E-3     1.138       0.1006E-2     1.146   
   -7.730       0.9037E-3     1.139       0.1007E-2     1.146   
   -7.720       0.9049E-3     1.139       0.1008E-2     1.146   
   -7.710       0.9061E-3     1.139       0.1010E-2     1.146   
   -7.700       0.9073E-3     1.139       0.1011E-2     1.146   
   -7.690       0.9085E-3     1.139       0.1013E-2     1.146   
   -7.680       0.9097E-3     1.139       0.1014E-2     1.146   
   -7.670       0.9109E-3     1.139       0.1016E-2     1.147   
   -7.660       0.9121E-3     1.139       0.1017E-2     1.147   
   -7.650       0.9133E-3     1.139       0.1018E-2     1.147   
   -7.640       0.9145E-3     1.139       0.1020E-2     1.147   
   -7.630       0.9158E-3     1.139       0.1021E-2     1.147   
   -7.620       0.9170E-3     1.140       0.1023E-2     1.147   
   -7.610       0.9182E-3     1.140       0.1024E-2     1.147   
   -7.600       0.9194E-3     1.140       0.1026E-2     1.147   
   -7.590       0.9207E-3     1.140       0.1027E-2     1.147   
   -7.580       0.9219E-3     1.140       0.1029E-2     1.147   
   -7.570       0.9231E-3     1.140       0.1030E-2     1.148   
   -7.560       0.9244E-3     1.140       0.1032E-2     1.148   
   -7.550       0.9256E-3     1.140       0.1033E-2     1.148   
   -7.540       0.9269E-3     1.140       0.1034E-2     1.148   
   -7.530       0.9281E-3     1.140       0.1036E-2     1.148   
   -7.520       0.9294E-3     1.140       0.1037E-2     1.148   
   -7.510       0.9306E-3     1.141       0.1039E-2     1.148   
   -7.500       0.9319E-3     1.141       0.1040E-2     1.148   
   -7.490       0.9331E-3     1.141       0.1042E-2     1.148   
   -7.480       0.9344E-3     1.141       0.1043E-2     1.148   
   -7.470       0.9356E-3     1.141       0.1045E-2     1.149   
   -7.460       0.9369E-3     1.141       0.1046E-2     1.149   
   -7.450       0.9382E-3     1.141       0.1048E-2     1.149   
   -7.440       0.9394E-3     1.141       0.1049E-2     1.149   
   -7.430       0.9407E-3     1.141       0.1051E-2     1.149   
   -7.420       0.9420E-3     1.141       0.1052E-2     1.149   
   -7.410       0.9432E-3     1.142       0.1054E-2     1.149   
   -7.400       0.9445E-3     1.142       0.1055E-2     1.149   
   -7.390       0.9458E-3     1.142       0.1057E-2     1.149   
   -7.380       0.9471E-3     1.142       0.1059E-2     1.150   
   -7.370       0.9484E-3     1.142       0.1060E-2     1.150   
   -7.360       0.9497E-3     1.142       0.1062E-2     1.150   
   -7.350       0.9510E-3     1.142       0.1063E-2     1.150   
   -7.340       0.9523E-3     1.142       0.1065E-2     1.150   
   -7.330       0.9536E-3     1.142       0.1066E-2     1.150   
   -7.320       0.9549E-3     1.142       0.1068E-2     1.150   
   -7.310       0.9562E-3     1.142       0.1069E-2     1.150   
   -7.300       0.9575E-3     1.143       0.1071E-2     1.150   
   -7.290       0.9588E-3     1.143       0.1072E-2     1.150   
   -7.280       0.9601E-3     1.143       0.1074E-2     1.151   
   -7.270       0.9614E-3     1.143       0.1076E-2     1.151   
   -7.260       0.9627E-3     1.143       0.1077E-2     1.151   
   -7.250       0.9640E-3     1.143       0.1079E-2     1.151   
   -7.240       0.9654E-3     1.143       0.1080E-2     1.151   
   -7.230       0.9667E-3     1.143       0.1082E-2     1.151   
   -7.220       0.9680E-3     1.143       0.1083E-2     1.151   
   -7.210       0.9693E-3     1.143       0.1085E-2     1.151   
   -7.200       0.9707E-3     1.144       0.1087E-2     1.151   
   -7.190       0.9720E-3     1.144       0.1088E-2     1.152   
   -7.180       0.9733E-3     1.144       0.1090E-2     1.152   
   -7.170       0.9747E-3     1.144       0.1091E-2     1.152   
   -7.160       0.9760E-3     1.144       0.1093E-2     1.152   
   -7.150       0.9774E-3     1.144       0.1095E-2     1.152   
   -7.140       0.9787E-3     1.144       0.1096E-2     1.152   
   -7.130       0.9801E-3     1.144       0.1098E-2     1.152   
   -7.120       0.9814E-3     1.144       0.1099E-2     1.152   
   -7.110       0.9828E-3     1.144       0.1101E-2     1.152   
   -7.100       0.9842E-3     1.144       0.1103E-2     1.153   
   -7.090       0.9855E-3     1.145       0.1104E-2     1.153   
   -7.080       0.9869E-3     1.145       0.1106E-2     1.153   
   -7.070       0.9883E-3     1.145       0.1108E-2     1.153   
   -7.060       0.9896E-3     1.145       0.1109E-2     1.153   
   -7.050       0.9910E-3     1.145       0.1111E-2     1.153   
   -7.040       0.9924E-3     1.145       0.1113E-2     1.153   
   -7.030       0.9938E-3     1.145       0.1114E-2     1.153   
   -7.020       0.9952E-3     1.145       0.1116E-2     1.153   
   -7.010       0.9965E-3     1.145       0.1118E-2     1.154   
   -7.000       0.9979E-3     1.145       0.1119E-2     1.154   
   -6.990       0.9993E-3     1.146       0.1121E-2     1.154   
   -6.980       0.1001E-2     1.146       0.1123E-2     1.154   
   -6.970       0.1002E-2     1.146       0.1124E-2     1.154   
   -6.960       0.1004E-2     1.146       0.1126E-2     1.154   
   -6.950       0.1005E-2     1.146       0.1128E-2     1.154   
   -6.940       0.1006E-2     1.146       0.1129E-2     1.154   
   -6.930       0.1008E-2     1.146       0.1131E-2     1.154   
   -6.920       0.1009E-2     1.146       0.1133E-2     1.155   
   -6.910       0.1011E-2     1.146       0.1134E-2     1.155   
   -6.900       0.1012E-2     1.146       0.1136E-2     1.155   
   -6.890       0.1013E-2     1.147       0.1138E-2     1.155   
   -6.880       0.1015E-2     1.147       0.1139E-2     1.155   
   -6.870       0.1016E-2     1.147       0.1141E-2     1.155   
   -6.860       0.1018E-2     1.147       0.1143E-2     1.155   
   -6.850       0.1019E-2     1.147       0.1145E-2     1.155   
   -6.840       0.1021E-2     1.147       0.1146E-2     1.155   
   -6.830       0.1022E-2     1.147       0.1148E-2     1.156   
   -6.820       0.1023E-2     1.147       0.1150E-2     1.156   
   -6.810       0.1025E-2     1.147       0.1152E-2     1.156   
   -6.800       0.1026E-2     1.148       0.1153E-2     1.156   
   -6.790       0.1028E-2     1.148       0.1155E-2     1.156   
   -6.780       0.1029E-2     1.148       0.1157E-2     1.156   
   -6.770       0.1031E-2     1.148       0.1159E-2     1.156   
   -6.760       0.1032E-2     1.148       0.1160E-2     1.156   
   -6.750       0.1034E-2     1.148       0.1162E-2     1.156   
   -6.740       0.1035E-2     1.148       0.1164E-2     1.157   
   -6.730       0.1037E-2     1.148       0.1166E-2     1.157   
   -6.720       0.1038E-2     1.148       0.1167E-2     1.157   
   -6.710       0.1040E-2     1.148       0.1169E-2     1.157   
   -6.700       0.1041E-2     1.149       0.1171E-2     1.157   
   -6.690       0.1043E-2     1.149       0.1173E-2     1.157   
   -6.680       0.1044E-2     1.149       0.1174E-2     1.157   
   -6.670       0.1046E-2     1.149       0.1176E-2     1.157   
   -6.660       0.1047E-2     1.149       0.1178E-2     1.158   
   -6.650       0.1049E-2     1.149       0.1180E-2     1.158   
   -6.640       0.1050E-2     1.149       0.1182E-2     1.158   
   -6.630       0.1052E-2     1.149       0.1184E-2     1.158   
   -6.620       0.1053E-2     1.149       0.1185E-2     1.158   
   -6.610       0.1055E-2     1.149       0.1187E-2     1.158   
   -6.600       0.1056E-2     1.150       0.1189E-2     1.158   
   -6.590       0.1058E-2     1.150       0.1191E-2     1.158   
   -6.580       0.1059E-2     1.150       0.1193E-2     1.158   
   -6.570       0.1061E-2     1.150       0.1194E-2     1.159   
   -6.560       0.1062E-2     1.150       0.1196E-2     1.159   
   -6.550       0.1064E-2     1.150       0.1198E-2     1.159   
   -6.540       0.1065E-2     1.150       0.1200E-2     1.159   
   -6.530       0.1067E-2     1.150       0.1202E-2     1.159   
   -6.520       0.1068E-2     1.150       0.1204E-2     1.159   
   -6.510       0.1070E-2     1.151       0.1206E-2     1.159   
   -6.500       0.1071E-2     1.151       0.1207E-2     1.159   
   -6.490       0.1073E-2     1.151       0.1209E-2     1.160   
   -6.480       0.1075E-2     1.151       0.1211E-2     1.160   
   -6.470       0.1076E-2     1.151       0.1213E-2     1.160   
   -6.460       0.1078E-2     1.151       0.1215E-2     1.160   
   -6.450       0.1079E-2     1.151       0.1217E-2     1.160   
   -6.440       0.1081E-2     1.151       0.1219E-2     1.160   
   -6.430       0.1082E-2     1.151       0.1221E-2     1.160   
   -6.420       0.1084E-2     1.152       0.1223E-2     1.160   
   -6.410       0.1086E-2     1.152       0.1224E-2     1.161   
   -6.400       0.1087E-2     1.152       0.1226E-2     1.161   
   -6.390       0.1089E-2     1.152       0.1228E-2     1.161   
   -6.380       0.1090E-2     1.152       0.1230E-2     1.161   
   -6.370       0.1092E-2     1.152       0.1232E-2     1.161   
   -6.360       0.1093E-2     1.152       0.1234E-2     1.161   
   -6.350       0.1095E-2     1.152       0.1236E-2     1.161   
   -6.340       0.1097E-2     1.152       0.1238E-2     1.161   
   -6.330       0.1098E-2     1.152       0.1240E-2     1.162   
   -6.320       0.1100E-2     1.153       0.1242E-2     1.162   
   -6.310       0.1102E-2     1.153       0.1244E-2     1.162   
   -6.300       0.1103E-2     1.153       0.1246E-2     1.162   
   -6.290       0.1105E-2     1.153       0.1248E-2     1.162   
   -6.280       0.1106E-2     1.153       0.1250E-2     1.162   
   -6.270       0.1108E-2     1.153       0.1252E-2     1.162   
   -6.260       0.1110E-2     1.153       0.1254E-2     1.162   
   -6.250       0.1111E-2     1.153       0.1256E-2     1.163   
   -6.240       0.1113E-2     1.153       0.1258E-2     1.163   
   -6.230       0.1115E-2     1.154       0.1260E-2     1.163   
   -6.220       0.1116E-2     1.154       0.1262E-2     1.163   
   -6.210       0.1118E-2     1.154       0.1264E-2     1.163   
   -6.200       0.1120E-2     1.154       0.1266E-2     1.163   
   -6.190       0.1121E-2     1.154       0.1268E-2     1.163   
   -6.180       0.1123E-2     1.154       0.1270E-2     1.163   
   -6.170       0.1125E-2     1.154       0.1272E-2     1.164   
   -6.160       0.1126E-2     1.154       0.1274E-2     1.164   
   -6.150       0.1128E-2     1.155       0.1276E-2     1.164   
   -6.140       0.1130E-2     1.155       0.1278E-2     1.164   
   -6.130       0.1131E-2     1.155       0.1280E-2     1.164   
   -6.120       0.1133E-2     1.155       0.1282E-2     1.164   
   -6.110       0.1135E-2     1.155       0.1284E-2     1.164   
   -6.100       0.1136E-2     1.155       0.1286E-2     1.164   
   -6.090       0.1138E-2     1.155       0.1288E-2     1.165   
   -6.080       0.1140E-2     1.155       0.1290E-2     1.165   
   -6.070       0.1141E-2     1.155       0.1292E-2     1.165   
   -6.060       0.1143E-2     1.156       0.1294E-2     1.165   
   -6.050       0.1145E-2     1.156       0.1296E-2     1.165   
   -6.040       0.1147E-2     1.156       0.1298E-2     1.165   
   -6.030       0.1148E-2     1.156       0.1300E-2     1.165   
   -6.020       0.1150E-2     1.156       0.1303E-2     1.165   
   -6.010       0.1152E-2     1.156       0.1305E-2     1.166   
   -6.000       0.1154E-2     1.156       0.1307E-2     1.166   
   -5.990       0.1155E-2     1.156       0.1309E-2     1.166   
   -5.980       0.1157E-2     1.156       0.1311E-2     1.166   
   -5.970       0.1159E-2     1.157       0.1313E-2     1.166   
   -5.960       0.1160E-2     1.157       0.1315E-2     1.166   
   -5.950       0.1162E-2     1.157       0.1317E-2     1.166   
   -5.940       0.1164E-2     1.157       0.1320E-2     1.167   
   -5.930       0.1166E-2     1.157       0.1322E-2     1.167   
   -5.920       0.1168E-2     1.157       0.1324E-2     1.167   
   -5.910       0.1169E-2     1.157       0.1326E-2     1.167   
   -5.900       0.1171E-2     1.157       0.1328E-2     1.167   
   -5.890       0.1173E-2     1.157       0.1330E-2     1.167   
   -5.880       0.1175E-2     1.158       0.1333E-2     1.167   
   -5.870       0.1176E-2     1.158       0.1335E-2     1.167   
   -5.860       0.1178E-2     1.158       0.1337E-2     1.168   
   -5.850       0.1180E-2     1.158       0.1339E-2     1.168   
   -5.840       0.1182E-2     1.158       0.1341E-2     1.168   
   -5.830       0.1184E-2     1.158       0.1343E-2     1.168   
   -5.820       0.1185E-2     1.158       0.1346E-2     1.168   
   -5.810       0.1187E-2     1.158       0.1348E-2     1.168   
   -5.800       0.1189E-2     1.159       0.1350E-2     1.168   
   -5.790       0.1191E-2     1.159       0.1352E-2     1.169   
   -5.780       0.1193E-2     1.159       0.1355E-2     1.169   
   -5.770       0.1195E-2     1.159       0.1357E-2     1.169   
   -5.760       0.1196E-2     1.159       0.1359E-2     1.169   
   -5.750       0.1198E-2     1.159       0.1361E-2     1.169   
   -5.740       0.1200E-2     1.159       0.1363E-2     1.169   
   -5.730       0.1202E-2     1.159       0.1366E-2     1.169   
   -5.720       0.1204E-2     1.160       0.1368E-2     1.169   
   -5.710       0.1206E-2     1.160       0.1370E-2     1.170   
   -5.700       0.1207E-2     1.160       0.1373E-2     1.170   
   -5.690       0.1209E-2     1.160       0.1375E-2     1.170   
   -5.680       0.1211E-2     1.160       0.1377E-2     1.170   
   -5.670       0.1213E-2     1.160       0.1379E-2     1.170   
   -5.660       0.1215E-2     1.160       0.1382E-2     1.170   
   -5.650       0.1217E-2     1.160       0.1384E-2     1.170   
   -5.640       0.1219E-2     1.160       0.1386E-2     1.171   
   -5.630       0.1221E-2     1.161       0.1389E-2     1.171   
   -5.620       0.1222E-2     1.161       0.1391E-2     1.171   
   -5.610       0.1224E-2     1.161       0.1393E-2     1.171   
   -5.600       0.1226E-2     1.161       0.1396E-2     1.171   
   -5.590       0.1228E-2     1.161       0.1398E-2     1.171   
   -5.580       0.1230E-2     1.161       0.1400E-2     1.171   
   -5.570       0.1232E-2     1.161       0.1403E-2     1.172   
   -5.560       0.1234E-2     1.161       0.1405E-2     1.172   
   -5.550       0.1236E-2     1.162       0.1407E-2     1.172   
   -5.540       0.1238E-2     1.162       0.1410E-2     1.172   
   -5.530       0.1240E-2     1.162       0.1412E-2     1.172   
   -5.520       0.1242E-2     1.162       0.1414E-2     1.172   
   -5.510       0.1244E-2     1.162       0.1417E-2     1.172   
   -5.500       0.1246E-2     1.162       0.1419E-2     1.173   
   -5.490       0.1248E-2     1.162       0.1422E-2     1.173   
   -5.480       0.1250E-2     1.162       0.1424E-2     1.173   
   -5.470       0.1251E-2     1.163       0.1426E-2     1.173   
   -5.460       0.1253E-2     1.163       0.1429E-2     1.173   
   -5.450       0.1255E-2     1.163       0.1431E-2     1.173   
   -5.440       0.1257E-2     1.163       0.1434E-2     1.173   
   -5.430       0.1259E-2     1.163       0.1436E-2     1.174   
   -5.420       0.1261E-2     1.163       0.1439E-2     1.174   
   -5.410       0.1263E-2     1.163       0.1441E-2     1.174   
   -5.400       0.1265E-2     1.163       0.1444E-2     1.174   
   -5.390       0.1267E-2     1.164       0.1446E-2     1.174   
   -5.380       0.1269E-2     1.164       0.1448E-2     1.174   
   -5.370       0.1271E-2     1.164       0.1451E-2     1.174   
   -5.360       0.1273E-2     1.164       0.1453E-2     1.175   
   -5.350       0.1275E-2     1.164       0.1456E-2     1.175   
   -5.340       0.1277E-2     1.164       0.1458E-2     1.175   
   -5.330       0.1279E-2     1.164       0.1461E-2     1.175   
   -5.320       0.1282E-2     1.164       0.1463E-2     1.175   
   -5.310       0.1284E-2     1.165       0.1466E-2     1.175   
   -5.300       0.1286E-2     1.165       0.1468E-2     1.175   
   -5.290       0.1288E-2     1.165       0.1471E-2     1.176   
   -5.280       0.1290E-2     1.165       0.1473E-2     1.176   
   -5.270       0.1292E-2     1.165       0.1476E-2     1.176   
   -5.260       0.1294E-2     1.165       0.1479E-2     1.176   
   -5.250       0.1296E-2     1.165       0.1481E-2     1.176   
   -5.240       0.1298E-2     1.166       0.1484E-2     1.176   
   -5.230       0.1300E-2     1.166       0.1486E-2     1.176   
   -5.220       0.1302E-2     1.166       0.1489E-2     1.177   
   -5.210       0.1304E-2     1.166       0.1491E-2     1.177   
   -5.200       0.1306E-2     1.166       0.1494E-2     1.177   
   -5.190       0.1308E-2     1.166       0.1497E-2     1.177   
   -5.180       0.1311E-2     1.166       0.1499E-2     1.177   
   -5.170       0.1313E-2     1.166       0.1502E-2     1.177   
   -5.160       0.1315E-2     1.167       0.1504E-2     1.178   
   -5.150       0.1317E-2     1.167       0.1507E-2     1.178   
   -5.140       0.1319E-2     1.167       0.1510E-2     1.178   
   -5.130       0.1321E-2     1.167       0.1512E-2     1.178   
   -5.120       0.1323E-2     1.167       0.1515E-2     1.178   
   -5.110       0.1325E-2     1.167       0.1518E-2     1.178   
   -5.100       0.1328E-2     1.167       0.1520E-2     1.178   
   -5.090       0.1330E-2     1.167       0.1523E-2     1.179   
   -5.080       0.1332E-2     1.168       0.1526E-2     1.179   
   -5.070       0.1334E-2     1.168       0.1528E-2     1.179   
   -5.060       0.1336E-2     1.168       0.1531E-2     1.179   
   -5.050       0.1338E-2     1.168       0.1534E-2     1.179   
   -5.040       0.1341E-2     1.168       0.1536E-2     1.179   
   -5.030       0.1343E-2     1.168       0.1539E-2     1.179   
   -5.020       0.1345E-2     1.168       0.1542E-2     1.180   
   -5.010       0.1347E-2     1.169       0.1545E-2     1.180   
   -5.000       0.1349E-2     1.169       0.1547E-2     1.180   
   -4.990       0.1352E-2     1.169       0.1550E-2     1.180   
   -4.980       0.1354E-2     1.169       0.1553E-2     1.180   
   -4.970       0.1356E-2     1.169       0.1555E-2     1.180   
   -4.960       0.1358E-2     1.169       0.1558E-2     1.181   
   -4.950       0.1360E-2     1.169       0.1561E-2     1.181   
   -4.940       0.1363E-2     1.169       0.1564E-2     1.181   
   -4.930       0.1365E-2     1.170       0.1567E-2     1.181   
   -4.920       0.1367E-2     1.170       0.1569E-2     1.181   
   -4.910       0.1369E-2     1.170       0.1572E-2     1.181   
   -4.900       0.1372E-2     1.170       0.1575E-2     1.182   
   -4.890       0.1374E-2     1.170       0.1578E-2     1.182   
   -4.880       0.1376E-2     1.170       0.1581E-2     1.182   
   -4.870       0.1379E-2     1.170       0.1583E-2     1.182   
   -4.860       0.1381E-2     1.171       0.1586E-2     1.182   
   -4.850       0.1383E-2     1.171       0.1589E-2     1.182   
   -4.840       0.1385E-2     1.171       0.1592E-2     1.182   
   -4.830       0.1388E-2     1.171       0.1595E-2     1.183   
   -4.820       0.1390E-2     1.171       0.1598E-2     1.183   
   -4.810       0.1392E-2     1.171       0.1601E-2     1.183   
   -4.800       0.1395E-2     1.171       0.1603E-2     1.183   
   -4.790       0.1397E-2     1.172       0.1606E-2     1.183   
   -4.780       0.1399E-2     1.172       0.1609E-2     1.183   
   -4.770       0.1402E-2     1.172       0.1612E-2     1.184   
   -4.760       0.1404E-2     1.172       0.1615E-2     1.184   
   -4.750       0.1406E-2     1.172       0.1618E-2     1.184   
   -4.740       0.1409E-2     1.172       0.1621E-2     1.184   
   -4.730       0.1411E-2     1.172       0.1624E-2     1.184   
   -4.720       0.1413E-2     1.173       0.1627E-2     1.184   
   -4.710       0.1416E-2     1.173       0.1630E-2     1.185   
   -4.700       0.1418E-2     1.173       0.1633E-2     1.185   
   -4.690       0.1421E-2     1.173       0.1636E-2     1.185   
   -4.680       0.1423E-2     1.173       0.1639E-2     1.185   
   -4.670       0.1425E-2     1.173       0.1642E-2     1.185   
   -4.660       0.1428E-2     1.173       0.1645E-2     1.185   
   -4.650       0.1430E-2     1.174       0.1648E-2     1.186   
   -4.640       0.1433E-2     1.174       0.1651E-2     1.186   
   -4.630       0.1435E-2     1.174       0.1654E-2     1.186   
   -4.620       0.1437E-2     1.174       0.1657E-2     1.186   
   -4.610       0.1440E-2     1.174       0.1660E-2     1.186   
   -4.600       0.1442E-2     1.174       0.1663E-2     1.186   
   -4.590       0.1445E-2     1.174       0.1666E-2     1.187   
   -4.580       0.1447E-2     1.175       0.1669E-2     1.187   
   -4.570       0.1450E-2     1.175       0.1672E-2     1.187   
   -4.560       0.1452E-2     1.175       0.1675E-2     1.187   
   -4.550       0.1455E-2     1.175       0.1678E-2     1.187   
   -4.540       0.1457E-2     1.175       0.1681E-2     1.187   
   -4.530       0.1460E-2     1.175       0.1684E-2     1.188   
   -4.520       0.1462E-2     1.175       0.1688E-2     1.188   
   -4.510       0.1465E-2     1.176       0.1691E-2     1.188   
   -4.500       0.1467E-2     1.176       0.1694E-2     1.188   
   -4.490       0.1470E-2     1.176       0.1697E-2     1.188   
   -4.480       0.1472E-2     1.176       0.1700E-2     1.188   
   -4.470       0.1475E-2     1.176       0.1703E-2     1.189   
   -4.460       0.1477E-2     1.176       0.1706E-2     1.189   
   -4.450       0.1480E-2     1.176       0.1710E-2     1.189   
   -4.440       0.1482E-2     1.177       0.1713E-2     1.189   
   -4.430       0.1485E-2     1.177       0.1716E-2     1.189   
   -4.420       0.1487E-2     1.177       0.1719E-2     1.189   
   -4.410       0.1490E-2     1.177       0.1722E-2     1.190   
   -4.400       0.1492E-2     1.177       0.1726E-2     1.190   
   -4.390       0.1495E-2     1.177       0.1729E-2     1.190   
   -4.380       0.1498E-2     1.177       0.1732E-2     1.190   
   -4.370       0.1500E-2     1.178       0.1735E-2     1.190   
   -4.360       0.1503E-2     1.178       0.1739E-2     1.190   
   -4.350       0.1505E-2     1.178       0.1742E-2     1.191   
   -4.340       0.1508E-2     1.178       0.1745E-2     1.191   
   -4.330       0.1511E-2     1.178       0.1749E-2     1.191   
   -4.320       0.1513E-2     1.178       0.1752E-2     1.191   
   -4.310       0.1516E-2     1.179       0.1755E-2     1.191   
   -4.300       0.1519E-2     1.179       0.1759E-2     1.191   
   -4.290       0.1521E-2     1.179       0.1762E-2     1.192   
   -4.280       0.1524E-2     1.179       0.1765E-2     1.192   
   -4.270       0.1527E-2     1.179       0.1769E-2     1.192   
   -4.260       0.1529E-2     1.179       0.1772E-2     1.192   
   -4.250       0.1532E-2     1.179       0.1775E-2     1.192   
   -4.240       0.1535E-2     1.180       0.1779E-2     1.193   
   -4.230       0.1537E-2     1.180       0.1782E-2     1.193   
   -4.220       0.1540E-2     1.180       0.1785E-2     1.193   
   -4.210       0.1543E-2     1.180       0.1789E-2     1.193   
   -4.200       0.1545E-2     1.180       0.1792E-2     1.193   
   -4.190       0.1548E-2     1.180       0.1796E-2     1.193   
   -4.180       0.1551E-2     1.181       0.1799E-2     1.194   
   -4.170       0.1554E-2     1.181       0.1803E-2     1.194   
   -4.160       0.1556E-2     1.181       0.1806E-2     1.194   
   -4.150       0.1559E-2     1.181       0.1810E-2     1.194   
   -4.140       0.1562E-2     1.181       0.1813E-2     1.194   
   -4.130       0.1565E-2     1.181       0.1817E-2     1.195   
   -4.120       0.1567E-2     1.181       0.1820E-2     1.195   
   -4.110       0.1570E-2     1.182       0.1824E-2     1.195   
   -4.100       0.1573E-2     1.182       0.1827E-2     1.195   
   -4.090       0.1576E-2     1.182       0.1831E-2     1.195   
   -4.080       0.1578E-2     1.182       0.1834E-2     1.195   
   -4.070       0.1581E-2     1.182       0.1838E-2     1.196   
   -4.060       0.1584E-2     1.182       0.1841E-2     1.196   
   -4.050       0.1587E-2     1.183       0.1845E-2     1.196   
   -4.040       0.1590E-2     1.183       0.1848E-2     1.196   
   -4.030       0.1593E-2     1.183       0.1852E-2     1.196   
   -4.020       0.1595E-2     1.183       0.1856E-2     1.197   
   -4.010       0.1598E-2     1.183       0.1859E-2     1.197   
   -4.000       0.1601E-2     1.183       0.1863E-2     1.197   
   -3.990       0.1604E-2     1.184       0.1867E-2     1.197   
   -3.980       0.1607E-2     1.184       0.1870E-2     1.197   
   -3.970       0.1610E-2     1.184       0.1874E-2     1.197   
   -3.960       0.1613E-2     1.184       0.1878E-2     1.198   
   -3.950       0.1616E-2     1.184       0.1881E-2     1.198   
   -3.940       0.1619E-2     1.184       0.1885E-2     1.198   
   -3.930       0.1621E-2     1.185       0.1889E-2     1.198   
   -3.920       0.1624E-2     1.185       0.1892E-2     1.198   
   -3.910       0.1627E-2     1.185       0.1896E-2     1.199   
   -3.900       0.1630E-2     1.185       0.1900E-2     1.199   
   -3.890       0.1633E-2     1.185       0.1904E-2     1.199   
   -3.880       0.1636E-2     1.185       0.1907E-2     1.199   
   -3.870       0.1639E-2     1.185       0.1911E-2     1.199   
   -3.860       0.1642E-2     1.186       0.1915E-2     1.200   
   -3.850       0.1645E-2     1.186       0.1919E-2     1.200   
   -3.840       0.1648E-2     1.186       0.1923E-2     1.200   
   -3.830       0.1651E-2     1.186       0.1926E-2     1.200   
   -3.820       0.1654E-2     1.186       0.1930E-2     1.200   
   -3.810       0.1657E-2     1.186       0.1934E-2     1.201   
   -3.800       0.1660E-2     1.187       0.1938E-2     1.201   
   -3.790       0.1663E-2     1.187       0.1942E-2     1.201   
   -3.780       0.1666E-2     1.187       0.1946E-2     1.201   
   -3.770       0.1669E-2     1.187       0.1950E-2     1.201   
   -3.760       0.1672E-2     1.187       0.1953E-2     1.202   
   -3.750       0.1675E-2     1.187       0.1957E-2     1.202   
   -3.740       0.1679E-2     1.188       0.1961E-2     1.202   
   -3.730       0.1682E-2     1.188       0.1965E-2     1.202   
   -3.720       0.1685E-2     1.188       0.1969E-2     1.202   
   -3.710       0.1688E-2     1.188       0.1973E-2     1.202   
   -3.700       0.1691E-2     1.188       0.1977E-2     1.203   
   -3.690       0.1694E-2     1.188       0.1981E-2     1.203   
   -3.680       0.1697E-2     1.189       0.1985E-2     1.203   
   -3.670       0.1700E-2     1.189       0.1989E-2     1.203   
   -3.660       0.1703E-2     1.189       0.1993E-2     1.203   
   -3.650       0.1707E-2     1.189       0.1997E-2     1.204   
   -3.640       0.1710E-2     1.189       0.2001E-2     1.204   
   -3.630       0.1713E-2     1.190       0.2005E-2     1.204   
   -3.620       0.1716E-2     1.190       0.2009E-2     1.204   
   -3.610       0.1719E-2     1.190       0.2014E-2     1.204   
   -3.600       0.1723E-2     1.190       0.2018E-2     1.205   
   -3.590       0.1726E-2     1.190       0.2022E-2     1.205   
   -3.580       0.1729E-2     1.190       0.2026E-2     1.205   
   -3.570       0.1732E-2     1.191       0.2030E-2     1.205   
   -3.560       0.1735E-2     1.191       0.2034E-2     1.205   
   -3.550       0.1739E-2     1.191       0.2038E-2     1.206   
   -3.540       0.1742E-2     1.191       0.2043E-2     1.206   
   -3.530       0.1745E-2     1.191       0.2047E-2     1.206   
   -3.520       0.1749E-2     1.191       0.2051E-2     1.206   
   -3.510       0.1752E-2     1.192       0.2055E-2     1.207   
   -3.500       0.1755E-2     1.192       0.2059E-2     1.207   
   -3.490       0.1758E-2     1.192       0.2064E-2     1.207   
   -3.480       0.1762E-2     1.192       0.2068E-2     1.207   
   -3.470       0.1765E-2     1.192       0.2072E-2     1.207   
   -3.460       0.1768E-2     1.192       0.2077E-2     1.208   
   -3.450       0.1772E-2     1.193       0.2081E-2     1.208   
   -3.440       0.1775E-2     1.193       0.2085E-2     1.208   
   -3.430       0.1778E-2     1.193       0.2089E-2     1.208   
   -3.420       0.1782E-2     1.193       0.2094E-2     1.208   
   -3.410       0.1785E-2     1.193       0.2098E-2     1.209   
   -3.400       0.1789E-2     1.194       0.2103E-2     1.209   
   -3.390       0.1792E-2     1.194       0.2107E-2     1.209   
   -3.380       0.1795E-2     1.194       0.2111E-2     1.209   
   -3.370       0.1799E-2     1.194       0.2116E-2     1.209   
   -3.360       0.1802E-2     1.194       0.2120E-2     1.210   
   -3.350       0.1806E-2     1.194       0.2125E-2     1.210   
   -3.340       0.1809E-2     1.195       0.2129E-2     1.210   
   -3.330       0.1813E-2     1.195       0.2134E-2     1.210   
   -3.320       0.1816E-2     1.195       0.2138E-2     1.210   
   -3.310       0.1820E-2     1.195       0.2143E-2     1.211   
   -3.300       0.1823E-2     1.195       0.2147E-2     1.211   
   -3.290       0.1827E-2     1.196       0.2152E-2     1.211   
   -3.280       0.1830E-2     1.196       0.2156E-2     1.211   
   -3.270       0.1834E-2     1.196       0.2161E-2     1.212   
   -3.260       0.1837E-2     1.196       0.2165E-2     1.212   
   -3.250       0.1841E-2     1.196       0.2170E-2     1.212   
   -3.240       0.1844E-2     1.196       0.2175E-2     1.212   
   -3.230       0.1848E-2     1.197       0.2179E-2     1.212   
   -3.220       0.1851E-2     1.197       0.2184E-2     1.213   
   -3.210       0.1855E-2     1.197       0.2188E-2     1.213   
   -3.200       0.1859E-2     1.197       0.2193E-2     1.213   
   -3.190       0.1862E-2     1.197       0.2198E-2     1.213   
   -3.180       0.1866E-2     1.198       0.2203E-2     1.214   
   -3.170       0.1870E-2     1.198       0.2207E-2     1.214   
   -3.160       0.1873E-2     1.198       0.2212E-2     1.214   
   -3.150       0.1877E-2     1.198       0.2217E-2     1.214   
   -3.140       0.1881E-2     1.198       0.2221E-2     1.214   
   -3.130       0.1884E-2     1.198       0.2226E-2     1.215   
   -3.120       0.1888E-2     1.199       0.2231E-2     1.215   
   -3.110       0.1892E-2     1.199       0.2236E-2     1.215   
   -3.100       0.1895E-2     1.199       0.2241E-2     1.215   
   -3.090       0.1899E-2     1.199       0.2246E-2     1.216   
   -3.080       0.1903E-2     1.199       0.2250E-2     1.216   
   -3.070       0.1906E-2     1.200       0.2255E-2     1.216   
   -3.060       0.1910E-2     1.200       0.2260E-2     1.216   
   -3.050       0.1914E-2     1.200       0.2265E-2     1.216   
   -3.040       0.1918E-2     1.200       0.2270E-2     1.217   
   -3.030       0.1922E-2     1.200       0.2275E-2     1.217   
   -3.020       0.1925E-2     1.201       0.2280E-2     1.217   
   -3.010       0.1929E-2     1.201       0.2285E-2     1.217   
   -3.000       0.1933E-2     1.201       0.2290E-2     1.218   
   -2.990       0.1937E-2     1.201       0.2295E-2     1.218   
   -2.980       0.1941E-2     1.201       0.2300E-2     1.218   
   -2.970       0.1945E-2     1.202       0.2305E-2     1.218   
   -2.960       0.1948E-2     1.202       0.2310E-2     1.218   
   -2.950       0.1952E-2     1.202       0.2315E-2     1.219   
   -2.940       0.1956E-2     1.202       0.2320E-2     1.219   
   -2.930       0.1960E-2     1.202       0.2325E-2     1.219   
   -2.920       0.1964E-2     1.203       0.2330E-2     1.219   
   -2.910       0.1968E-2     1.203       0.2336E-2     1.220   
   -2.900       0.1972E-2     1.203       0.2341E-2     1.220   
   -2.890       0.1976E-2     1.203       0.2346E-2     1.220   
   -2.880       0.1980E-2     1.203       0.2351E-2     1.220   
   -2.870       0.1984E-2     1.204       0.2356E-2     1.221   
   -2.860       0.1988E-2     1.204       0.2362E-2     1.221   
   -2.850       0.1992E-2     1.204       0.2367E-2     1.221   
   -2.840       0.1996E-2     1.204       0.2372E-2     1.221   
   -2.830       0.2000E-2     1.204       0.2377E-2     1.222   
   -2.820       0.2004E-2     1.205       0.2383E-2     1.222   
   -2.810       0.2008E-2     1.205       0.2388E-2     1.222   
   -2.800       0.2012E-2     1.205       0.2393E-2     1.222   
   -2.790       0.2016E-2     1.205       0.2399E-2     1.222   
   -2.780       0.2020E-2     1.205       0.2404E-2     1.223   
   -2.770       0.2024E-2     1.206       0.2409E-2     1.223   
   -2.760       0.2028E-2     1.206       0.2415E-2     1.223   
   -2.750       0.2033E-2     1.206       0.2420E-2     1.223   
   -2.740       0.2037E-2     1.206       0.2426E-2     1.224   
   -2.730       0.2041E-2     1.206       0.2431E-2     1.224   
   -2.720       0.2045E-2     1.207       0.2437E-2     1.224   
   -2.710       0.2049E-2     1.207       0.2442E-2     1.224   
   -2.700       0.2053E-2     1.207       0.2448E-2     1.225   
   -2.690       0.2058E-2     1.207       0.2453E-2     1.225   
   -2.680       0.2062E-2     1.207       0.2459E-2     1.225   
   -2.670       0.2066E-2     1.208       0.2465E-2     1.225   
   -2.660       0.2070E-2     1.208       0.2470E-2     1.226   
   -2.650       0.2075E-2     1.208       0.2476E-2     1.226   
   -2.640       0.2079E-2     1.208       0.2481E-2     1.226   
   -2.630       0.2083E-2     1.208       0.2487E-2     1.226   
   -2.620       0.2088E-2     1.209       0.2493E-2     1.227   
   -2.610       0.2092E-2     1.209       0.2499E-2     1.227   
   -2.600       0.2096E-2     1.209       0.2504E-2     1.227   
   -2.590       0.2101E-2     1.209       0.2510E-2     1.227   
   -2.580       0.2105E-2     1.209       0.2516E-2     1.228   
   -2.570       0.2109E-2     1.210       0.2522E-2     1.228   
   -2.560       0.2114E-2     1.210       0.2527E-2     1.228   
   -2.550       0.2118E-2     1.210       0.2533E-2     1.228   
   -2.540       0.2123E-2     1.210       0.2539E-2     1.229   
   -2.530       0.2127E-2     1.210       0.2545E-2     1.229   
   -2.520       0.2131E-2     1.211       0.2551E-2     1.229   
   -2.510       0.2136E-2     1.211       0.2557E-2     1.229   
   -2.500       0.2140E-2     1.211       0.2563E-2     1.230   
   -2.490       0.2145E-2     1.211       0.2569E-2     1.230   
   -2.480       0.2149E-2     1.212       0.2575E-2     1.230   
   -2.470       0.2154E-2     1.212       0.2581E-2     1.230   
   -2.460       0.2158E-2     1.212       0.2587E-2     1.231   
   -2.450       0.2163E-2     1.212       0.2593E-2     1.231   
   -2.440       0.2168E-2     1.212       0.2599E-2     1.231   
   -2.430       0.2172E-2     1.213       0.2605E-2     1.231   
   -2.420       0.2177E-2     1.213       0.2611E-2     1.232   
   -2.410       0.2181E-2     1.213       0.2617E-2     1.232   
   -2.400       0.2186E-2     1.213       0.2623E-2     1.232   
   -2.390       0.2191E-2     1.214       0.2629E-2     1.233   
   -2.380       0.2195E-2     1.214       0.2636E-2     1.233   
   -2.370       0.2200E-2     1.214       0.2642E-2     1.233   
   -2.360       0.2205E-2     1.214       0.2648E-2     1.233   
   -2.350       0.2209E-2     1.214       0.2654E-2     1.234   
   -2.340       0.2214E-2     1.215       0.2661E-2     1.234   
   -2.330       0.2219E-2     1.215       0.2667E-2     1.234   
   -2.320       0.2224E-2     1.215       0.2673E-2     1.234   
   -2.310       0.2228E-2     1.215       0.2680E-2     1.235   
   -2.300       0.2233E-2     1.216       0.2686E-2     1.235   
   -2.290       0.2238E-2     1.216       0.2693E-2     1.235   
   -2.280       0.2243E-2     1.216       0.2699E-2     1.235   
   -2.270       0.2247E-2     1.216       0.2705E-2     1.236   
   -2.260       0.2252E-2     1.216       0.2712E-2     1.236   
     -2.2500       0.0023       1.2166       0.0027       1.2363
     -2.2400       0.0023       1.2169       0.0027       1.2365
     -2.2300       0.0023       1.2171       0.0027       1.2368
     -2.2200       0.0023       1.2173       0.0027       1.2371
     -2.2100       0.0023       1.2175       0.0027       1.2374
     -2.2000       0.0023       1.2178       0.0028       1.2376
     -2.1900       0.0023       1.2180       0.0028       1.2379
     -2.1800       0.0023       1.2182       0.0028       1.2382
     -2.1700       0.0023       1.2185       0.0028       1.2385
     -2.1600       0.0023       1.2187       0.0028       1.2388
     -2.1500       0.0023       1.2189       0.0028       1.2390
     -2.1400       0.0023       1.2191       0.0028       1.2393
     -2.1300       0.0023       1.2194       0.0028       1.2396
     -2.1200       0.0023       1.2196       0.0028       1.2399
     -2.1100       0.0023       1.2198       0.0028       1.2401
     -2.1000       0.0023       1.2201       0.0028       1.2404
     -2.0900       0.0023       1.2203       0.0028       1.2407
     -2.0800       0.0023       1.2205       0.0028       1.2410
     -2.0700       0.0023       1.2208       0.0028       1.2413
     -2.0600       0.0024       1.2210       0.0028       1.2416
     -2.0500       0.0024       1.2212       0.0029       1.2418
     -2.0400       0.0024       1.2215       0.0029       1.2421
     -2.0300       0.0024       1.2217       0.0029       1.2424
     -2.0200       0.0024       1.2220       0.0029       1.2427
     -2.0100       0.0024       1.2222       0.0029       1.2430
     -2.0000       0.0024       1.2224       0.0029       1.2433
     -1.9900       0.0024       1.2227       0.0029       1.2436
     -1.9800       0.0024       1.2229       0.0029       1.2439
     -1.9700       0.0024       1.2231       0.0029       1.2442
     -1.9600       0.0024       1.2234       0.0029       1.2444
     -1.9500       0.0024       1.2236       0.0029       1.2447
     -1.9400       0.0024       1.2239       0.0029       1.2450
     -1.9300       0.0024       1.2241       0.0029       1.2453
     -1.9200       0.0024       1.2244       0.0029       1.2456
     -1.9100       0.0024       1.2246       0.0030       1.2459
     -1.9000       0.0024       1.2248       0.0030       1.2462
     -1.8900       0.0024       1.2251       0.0030       1.2465
     -1.8800       0.0024       1.2253       0.0030       1.2468
     -1.8700       0.0025       1.2256       0.0030       1.2471
     -1.8600       0.0025       1.2258       0.0030       1.2474
     -1.8500       0.0025       1.2261       0.0030       1.2477
     -1.8400       0.0025       1.2263       0.0030       1.2480
     -1.8300       0.0025       1.2266       0.0030       1.2483
     -1.8200       0.0025       1.2268       0.0030       1.2486
     -1.8100       0.0025       1.2271       0.0030       1.2489
     -1.8000       0.0025       1.2273       0.0030       1.2492
     -1.7900       0.0025       1.2276       0.0030       1.2495
     -1.7800       0.0025       1.2278       0.0031       1.2498
     -1.7700       0.0025       1.2281       0.0031       1.2501
     -1.7600       0.0025       1.2283       0.0031       1.2504
     -1.7500       0.0025       1.2286       0.0031       1.2507
     -1.7400       0.0025       1.2288       0.0031       1.2510
     -1.7300       0.0025       1.2291       0.0031       1.2514
     -1.7200       0.0025       1.2293       0.0031       1.2517
     -1.7100       0.0025       1.2296       0.0031       1.2520
     -1.7000       0.0026       1.2298       0.0031       1.2523
     -1.6900       0.0026       1.2301       0.0031       1.2526
     -1.6800       0.0026       1.2303       0.0031       1.2529
     -1.6700       0.0026       1.2306       0.0031       1.2532
     -1.6600       0.0026       1.2309       0.0031       1.2535
     -1.6500       0.0026       1.2311       0.0032       1.2539
     -1.6400       0.0026       1.2314       0.0032       1.2542
     -1.6300       0.0026       1.2316       0.0032       1.2545
     -1.6200       0.0026       1.2319       0.0032       1.2548
     -1.6100       0.0026       1.2321       0.0032       1.2551
     -1.6000       0.0026       1.2324       0.0032       1.2554
     -1.5900       0.0026       1.2327       0.0032       1.2558
     -1.5800       0.0026       1.2329       0.0032       1.2561
     -1.5700       0.0026       1.2332       0.0032       1.2564
     -1.5600       0.0026       1.2335       0.0032       1.2567
     -1.5500       0.0026       1.2337       0.0032       1.2570
     -1.5400       0.0026       1.2340       0.0033       1.2574
     -1.5300       0.0027       1.2343       0.0033       1.2577
     -1.5200       0.0027       1.2345       0.0033       1.2580
     -1.5100       0.0027       1.2348       0.0033       1.2584
     -1.5000       0.0027       1.2350       0.0033       1.2587
     -1.4900       0.0027       1.2353       0.0033       1.2590
     -1.4800       0.0027       1.2356       0.0033       1.2593
     -1.4700       0.0027       1.2359       0.0033       1.2597
     -1.4600       0.0027       1.2361       0.0033       1.2600
     -1.4500       0.0027       1.2364       0.0033       1.2603
     -1.4400       0.0027       1.2367       0.0033       1.2607
     -1.4300       0.0027       1.2369       0.0033       1.2610
     -1.4200       0.0027       1.2372       0.0034       1.2613
     -1.4100       0.0027       1.2375       0.0034       1.2617
     -1.4000       0.0027       1.2378       0.0034       1.2620
     -1.3900       0.0027       1.2380       0.0034       1.2623
     -1.3800       0.0028       1.2383       0.0034       1.2627
     -1.3700       0.0028       1.2386       0.0034       1.2630
     -1.3600       0.0028       1.2389       0.0034       1.2634
     -1.3500       0.0028       1.2391       0.0034       1.2637
     -1.3400       0.0028       1.2394       0.0034       1.2640
     -1.3300       0.0028       1.2397       0.0034       1.2644
     -1.3200       0.0028       1.2400       0.0034       1.2647
     -1.3100       0.0028       1.2402       0.0035       1.2651
     -1.3000       0.0028       1.2405       0.0035       1.2654
     -1.2900       0.0028       1.2408       0.0035       1.2658
     -1.2800       0.0028       1.2411       0.0035       1.2661
     -1.2700       0.0028       1.2414       0.0035       1.2665
     -1.2600       0.0028       1.2417       0.0035       1.2668
     -1.2500       0.0028       1.2419       0.0035       1.2672
     -1.2400       0.0028       1.2422       0.0035       1.2675
     -1.2300       0.0029       1.2425       0.0035       1.2679
     -1.2200       0.0029       1.2428       0.0035       1.2682
     -1.2100       0.0029       1.2431       0.0036       1.2686
     -1.2000       0.0029       1.2434       0.0036       1.2689
     -1.1900       0.0029       1.2437       0.0036       1.2693
     -1.1800       0.0029       1.2439       0.0036       1.2697
     -1.1700       0.0029       1.2442       0.0036       1.2700
     -1.1600       0.0029       1.2445       0.0036       1.2704
     -1.1500       0.0029       1.2448       0.0036       1.2707
     -1.1400       0.0029       1.2451       0.0036       1.2711
     -1.1300       0.0029       1.2454       0.0036       1.2715
     -1.1200       0.0029       1.2457       0.0036       1.2718
     -1.1100       0.0029       1.2460       0.0037       1.2722
     -1.1000       0.0029       1.2463       0.0037       1.2726
     -1.0900       0.0030       1.2466       0.0037       1.2729
     -1.0800       0.0030       1.2469       0.0037       1.2733
     -1.0700       0.0030       1.2472       0.0037       1.2737
     -1.0600       0.0030       1.2475       0.0037       1.2740
     -1.0500       0.0030       1.2478       0.0037       1.2744
     -1.0400       0.0030       1.2481       0.0037       1.2748
     -1.0300       0.0030       1.2484       0.0037       1.2751
     -1.0200       0.0030       1.2487       0.0038       1.2755
     -1.0100       0.0030       1.2490       0.0038       1.2759
     -1.0000       0.0030       1.2493       0.0038       1.2763
     -0.9900       0.0030       1.2496       0.0038       1.2767
     -0.9800       0.0030       1.2499       0.0038       1.2770
     -0.9700       0.0030       1.2502       0.0038       1.2774
     -0.9600       0.0031       1.2505       0.0038       1.2778
     -0.9500       0.0031       1.2508       0.0038       1.2782
     -0.9400       0.0031       1.2511       0.0038       1.2786
     -0.9300       0.0031       1.2514       0.0038       1.2789
     -0.9200       0.0031       1.2517       0.0039       1.2793
     -0.9100       0.0031       1.2520       0.0039       1.2797
     -0.9000       0.0031       1.2523       0.0039       1.2801
     -0.8900       0.0031       1.2526       0.0039       1.2805
     -0.8800       0.0031       1.2529       0.0039       1.2809
     -0.8700       0.0031       1.2533       0.0039       1.2813
     -0.8600       0.0031       1.2536       0.0039       1.2817
     -0.8500       0.0031       1.2539       0.0039       1.2821
     -0.8400       0.0031       1.2542       0.0040       1.2825
     -0.8300       0.0032       1.2545       0.0040       1.2828
     -0.8200       0.0032       1.2548       0.0040       1.2832
     -0.8100       0.0032       1.2551       0.0040       1.2836
     -0.8000       0.0032       1.2555       0.0040       1.2840
     -0.7900       0.0032       1.2558       0.0040       1.2844
     -0.7800       0.0032       1.2561       0.0040       1.2848
     -0.7700       0.0032       1.2564       0.0040       1.2852
     -0.7600       0.0032       1.2567       0.0040       1.2856
     -0.7500       0.0032       1.2571       0.0041       1.2861
     -0.7400       0.0032       1.2574       0.0041       1.2865
     -0.7300       0.0032       1.2577       0.0041       1.2869
     -0.7200       0.0032       1.2580       0.0041       1.2873
     -0.7100       0.0033       1.2584       0.0041       1.2877
     -0.7000       0.0033       1.2587       0.0041       1.2881
     -0.6900       0.0033       1.2590       0.0041       1.2885
     -0.6800       0.0033       1.2593       0.0041       1.2889
     -0.6700       0.0033       1.2597       0.0042       1.2893
     -0.6600       0.0033       1.2600       0.0042       1.2898
     -0.6500       0.0033       1.2603       0.0042       1.2902
     -0.6400       0.0033       1.2607       0.0042       1.2906
     -0.6300       0.0033       1.2610       0.0042       1.2910
     -0.6200       0.0033       1.2613       0.0042       1.2914
     -0.6100       0.0033       1.2617       0.0042       1.2919
     -0.6000       0.0034       1.2620       0.0042       1.2923
     -0.5900       0.0034       1.2623       0.0043       1.2927
     -0.5800       0.0034       1.2627       0.0043       1.2931
     -0.5700       0.0034       1.2630       0.0043       1.2936
     -0.5600       0.0034       1.2633       0.0043       1.2940
     -0.5500       0.0034       1.2637       0.0043       1.2944
     -0.5400       0.0034       1.2640       0.0043       1.2949
     -0.5300       0.0034       1.2644       0.0043       1.2953
     -0.5200       0.0034       1.2647       0.0044       1.2957
     -0.5100       0.0034       1.2650       0.0044       1.2962
     -0.5000       0.0034       1.2654       0.0044       1.2966
     -0.4900       0.0035       1.2657       0.0044       1.2970
     -0.4800       0.0035       1.2661       0.0044       1.2975
     -0.4700       0.0035       1.2664       0.0044       1.2979
     -0.4600       0.0035       1.2668       0.0044       1.2984
     -0.4500       0.0035       1.2671       0.0045       1.2988
     -0.4400       0.0035       1.2675       0.0045       1.2992
     -0.4300       0.0035       1.2678       0.0045       1.2997
     -0.4200       0.0035       1.2682       0.0045       1.3001
     -0.4100       0.0035       1.2685       0.0045       1.3006
     -0.4000       0.0035       1.2689       0.0045       1.3010
     -0.3900       0.0036       1.2692       0.0045       1.3015
     -0.3800       0.0036       1.2696       0.0046       1.3020
     -0.3700       0.0036       1.2700       0.0046       1.3024
     -0.3600       0.0036       1.2703       0.0046       1.3029
     -0.3500       0.0036       1.2707       0.0046       1.3033
     -0.3400       0.0036       1.2710       0.0046       1.3038
     -0.3300       0.0036       1.2714       0.0046       1.3042
     -0.3200       0.0036       1.2718       0.0046       1.3047
     -0.3100       0.0036       1.2721       0.0047       1.3052
     -0.3000       0.0036       1.2725       0.0047       1.3056
     -0.2900       0.0037       1.2728       0.0047       1.3061
     -0.2800       0.0037       1.2732       0.0047       1.3066
     -0.2700       0.0037       1.2736       0.0047       1.3070
     -0.2600       0.0037       1.2739       0.0047       1.3075
     -0.2500       0.0037       1.2743       0.0047       1.3080
     -0.2400       0.0037       1.2747       0.0048       1.3085
     -0.2300       0.0037       1.2751       0.0048       1.3089
     -0.2200       0.0037       1.2754       0.0048       1.3094
     -0.2100       0.0037       1.2758       0.0048       1.3099
     -0.2000       0.0037       1.2762       0.0048       1.3104
     -0.1900       0.0038       1.2765       0.0048       1.3109
     -0.1800       0.0038       1.2769       0.0049       1.3114
     -0.1700       0.0038       1.2773       0.0049       1.3118
     -0.1600       0.0038       1.2777       0.0049       1.3123
     -0.1500       0.0038       1.2781       0.0049       1.3128
     -0.1400       0.0038       1.2784       0.0049       1.3133
     -0.1300       0.0038       1.2788       0.0049       1.3138
     -0.1200       0.0038       1.2792       0.0050       1.3143
     -0.1100       0.0038       1.2796       0.0050       1.3148
     -0.1000       0.0039       1.2800       0.0050       1.3153
     -0.0900       0.0039       1.2804       0.0050       1.3158
     -0.0800       0.0039       1.2808       0.0050       1.3163
     -0.0700       0.0039       1.2811       0.0050       1.3168
     -0.0600       0.0039       1.2815       0.0051       1.3173
     -0.0500       0.0039       1.2819       0.0051       1.3178
     -0.0400       0.0039       1.2823       0.0051       1.3183
     -0.0300       0.0039       1.2827       0.0051       1.3188
     -0.0200       0.0040       1.2831       0.0051       1.3193
     -0.0100       0.0040       1.2835       0.0051       1.3198
      0.0000       0.0040       1.2839       0.0052       1.3204
      0.0100       0.0040       1.2843       0.0052       1.3209
      0.0200       0.0040       1.2847       0.0052       1.3214
      0.0300       0.0040       1.2851       0.0052       1.3219
      0.0400       0.0040       1.2855       0.0052       1.3224
      0.0500       0.0040       1.2859       0.0053       1.3230
      0.0600       0.0040       1.2863       0.0053       1.3235
      0.0700       0.0041       1.2867       0.0053       1.3240
      0.0800       0.0041       1.2871       0.0053       1.3245
      0.0900       0.0041       1.2875       0.0053       1.3251
      0.1000       0.0041       1.2879       0.0053       1.3256
      0.1100       0.0041       1.2883       0.0054       1.3261
      0.1200       0.0041       1.2887       0.0054       1.3267
      0.1300       0.0041       1.2892       0.0054       1.3272
      0.1400       0.0041       1.2896       0.0054       1.3278
      0.1500       0.0042       1.2900       0.0054       1.3283
      0.1600       0.0042       1.2904       0.0055       1.3289
      0.1700       0.0042       1.2908       0.0055       1.3294
      0.1800       0.0042       1.2912       0.0055       1.3299
      0.1900       0.0042       1.2917       0.0055       1.3305
      0.2000       0.0042       1.2921       0.0055       1.3310
      0.2100       0.0042       1.2925       0.0056       1.3316
      0.2200       0.0042       1.2929       0.0056       1.3322
      0.2300       0.0043       1.2934       0.0056       1.3327
      0.2400       0.0043       1.2938       0.0056       1.3333
      0.2500       0.0043       1.2942       0.0056       1.3338
      0.2600       0.0043       1.2946       0.0057       1.3344
      0.2700       0.0043       1.2951       0.0057       1.3350
      0.2800       0.0043       1.2955       0.0057       1.3355
      0.2900       0.0043       1.2959       0.0057       1.3361
      0.3000       0.0044       1.2964       0.0057       1.3367
      0.3100       0.0044       1.2968       0.0058       1.3373
      0.3200       0.0044       1.2972       0.0058       1.3378
      0.3300       0.0044       1.2977       0.0058       1.3384
      0.3400       0.0044       1.2981       0.0058       1.3390
      0.3500       0.0044       1.2986       0.0058       1.3396
      0.3600       0.0044       1.2990       0.0059       1.3402
      0.3700       0.0045       1.2995       0.0059       1.3408
      0.3800       0.0045       1.2999       0.0059       1.3413
      0.3900       0.0045       1.3003       0.0059       1.3419
      0.4000       0.0045       1.3008       0.0060       1.3425
      0.4100       0.0045       1.3012       0.0060       1.3431
      0.4200       0.0045       1.3017       0.0060       1.3437
      0.4300       0.0045       1.3021       0.0060       1.3443
      0.4400       0.0046       1.3026       0.0060       1.3449
      0.4500       0.0046       1.3031       0.0061       1.3455
      0.4600       0.0046       1.3035       0.0061       1.3461
      0.4700       0.0046       1.3040       0.0061       1.3467
      0.4800       0.0046       1.3044       0.0061       1.3474
      0.4900       0.0046       1.3049       0.0062       1.3480
      0.5000       0.0046       1.3054       0.0062       1.3486
      0.5100       0.0047       1.3058       0.0062       1.3492
      0.5200       0.0047       1.3063       0.0062       1.3498
      0.5300       0.0047       1.3068       0.0063       1.3505
      0.5400       0.0047       1.3072       0.0063       1.3511
      0.5500       0.0047       1.3077       0.0063       1.3517
      0.5600       0.0047       1.3082       0.0063       1.3523
      0.5700       0.0048       1.3086       0.0064       1.3530
      0.5800       0.0048       1.3091       0.0064       1.3536
      0.5900       0.0048       1.3096       0.0064       1.3542
      0.6000       0.0048       1.3101       0.0064       1.3549
      0.6100       0.0048       1.3106       0.0065       1.3555
      0.6200       0.0048       1.3110       0.0065       1.3562
      0.6300       0.0048       1.3115       0.0065       1.3568
      0.6400       0.0049       1.3120       0.0065       1.3575
      0.6500       0.0049       1.3125       0.0066       1.3581
      0.6600       0.0049       1.3130       0.0066       1.3588
      0.6700       0.0049       1.3135       0.0066       1.3594
      0.6800       0.0049       1.3140       0.0066       1.3601
      0.6900       0.0049       1.3145       0.0067       1.3608
      0.7000       0.0050       1.3150       0.0067       1.3614
      0.7100       0.0050       1.3155       0.0067       1.3621
      0.7200       0.0050       1.3159       0.0067       1.3628
      0.7300       0.0050       1.3164       0.0068       1.3635
      0.7400       0.0050       1.3170       0.0068       1.3641
      0.7500       0.0050       1.3175       0.0068       1.3648
      0.7600       0.0051       1.3180       0.0068       1.3655
      0.7700       0.0051       1.3185       0.0069       1.3662
      0.7800       0.0051       1.3190       0.0069       1.3669
      0.7900       0.0051       1.3195       0.0069       1.3676
      0.8000       0.0051       1.3200       0.0070       1.3683
      0.8100       0.0052       1.3205       0.0070       1.3690
      0.8200       0.0052       1.3210       0.0070       1.3697
      0.8300       0.0052       1.3215       0.0070       1.3704
      0.8400       0.0052       1.3221       0.0071       1.3711
      0.8500       0.0052       1.3226       0.0071       1.3718
      0.8600       0.0052       1.3231       0.0071       1.3725
      0.8700       0.0053       1.3236       0.0072       1.3732
      0.8800       0.0053       1.3242       0.0072       1.3739
      0.8900       0.0053       1.3247       0.0072       1.3746
      0.9000       0.0053       1.3252       0.0073       1.3754
      0.9100       0.0053       1.3258       0.0073       1.3761
      0.9200       0.0054       1.3263       0.0073       1.3768
      0.9300       0.0054       1.3268       0.0073       1.3775
      0.9400       0.0054       1.3274       0.0074       1.3783
      0.9500       0.0054       1.3279       0.0074       1.3790
      0.9600       0.0054       1.3284       0.0074       1.3798
      0.9700       0.0055       1.3290       0.0075       1.3805
      0.9800       0.0055       1.3295       0.0075       1.3812
      0.9900       0.0055       1.3301       0.0075       1.3820
      1.0000       0.0055       1.3306       0.0076       1.3828
      1.0100       0.0055       1.3312       0.0076       1.3835
      1.0200       0.0056       1.3317       0.0076       1.3843
      1.0300       0.0056       1.3323       0.0077       1.3850
      1.0400       0.0056       1.3328       0.0077       1.3858
      1.0500       0.0056       1.3334       0.0077       1.3866
      1.0600       0.0056       1.3340       0.0078       1.3873
      1.0700       0.0057       1.3345       0.0078       1.3881
      1.0800       0.0057       1.3351       0.0078       1.3889
      1.0900       0.0057       1.3357       0.0079       1.3897
      1.1000       0.0057       1.3362       0.0079       1.3905
      1.1100       0.0057       1.3368       0.0079       1.3913
      1.1200       0.0058       1.3374       0.0080       1.3921
      1.1300       0.0058       1.3380       0.0080       1.3929
      1.1400       0.0058       1.3385       0.0080       1.3937
      1.1500       0.0058       1.3391       0.0081       1.3945
      1.1600       0.0058       1.3397       0.0081       1.3953
      1.1700       0.0059       1.3403       0.0081       1.3961
      1.1800       0.0059       1.3409       0.0082       1.3969
      1.1900       0.0059       1.3415       0.0082       1.3977
      1.2000       0.0059       1.3421       0.0083       1.3985
      1.2100       0.0060       1.3427       0.0083       1.3994
      1.2200       0.0060       1.3433       0.0083       1.4002
      1.2300       0.0060       1.3438       0.0084       1.4010
      1.2400       0.0060       1.3445       0.0084       1.4019
      1.2500       0.0060       1.3451       0.0084       1.4027
      1.2600       0.0061       1.3457       0.0085       1.4036
      1.2700       0.0061       1.3463       0.0085       1.4044
      1.2800       0.0061       1.3469       0.0086       1.4053
      1.2900       0.0061       1.3475       0.0086       1.4061
      1.3000       0.0062       1.3481       0.0086       1.4070
      1.3100       0.0062       1.3487       0.0087       1.4079
      1.3200       0.0062       1.3493       0.0087       1.4087
      1.3300       0.0062       1.3500       0.0088       1.4096
      1.3400       0.0063       1.3506       0.0088       1.4105
      1.3500       0.0063       1.3512       0.0088       1.4114
      1.3600       0.0063       1.3518       0.0089       1.4122
      1.3700       0.0063       1.3525       0.0089       1.4131
      1.3800       0.0064       1.3531       0.0090       1.4140
      1.3900       0.0064       1.3538       0.0090       1.4149
      1.4000       0.0064       1.3544       0.0091       1.4158
      1.4100       0.0064       1.3550       0.0091       1.4167
      1.4200       0.0065       1.3557       0.0091       1.4176
      1.4300       0.0065       1.3563       0.0092       1.4186
      1.4400       0.0065       1.3570       0.0092       1.4195
      1.4500       0.0065       1.3576       0.0093       1.4204
      1.4600       0.0066       1.3583       0.0093       1.4213
      1.4700       0.0066       1.3589       0.0094       1.4223
      1.4800       0.0066       1.3596       0.0094       1.4232
      1.4900       0.0067       1.3603       0.0095       1.4242
      1.5000       0.0067       1.3609       0.0095       1.4251
      1.5100       0.0067       1.3616       0.0096       1.4261
      1.5200       0.0067       1.3623       0.0096       1.4270
      1.5300       0.0068       1.3629       0.0096       1.4280
      1.5400       0.0068       1.3636       0.0097       1.4289
      1.5500       0.0068       1.3643       0.0097       1.4299
      1.5600       0.0068       1.3650       0.0098       1.4309
      1.5700       0.0069       1.3657       0.0098       1.4319
      1.5800       0.0069       1.3664       0.0099       1.4328
      1.5900       0.0069       1.3670       0.0099       1.4338
      1.6000       0.0070       1.3677       0.0100       1.4348
      1.6100       0.0070       1.3684       0.0100       1.4358
      1.6200       0.0070       1.3691       0.0101       1.4368
      1.6300       0.0071       1.3698       0.0101       1.4379
      1.6400       0.0071       1.3705       0.0102       1.4389
      1.6500       0.0071       1.3713       0.0102       1.4399
      1.6600       0.0071       1.3720       0.0103       1.4409
      1.6700       0.0072       1.3727       0.0104       1.4419
      1.6800       0.0072       1.3734       0.0104       1.4430
      1.6900       0.0072       1.3741       0.0105       1.4440
      1.7000       0.0073       1.3748       0.0105       1.4451
      1.7100       0.0073       1.3756       0.0106       1.4461
      1.7200       0.0073       1.3763       0.0106       1.4472
      1.7300       0.0074       1.3770       0.0107       1.4482
      1.7400       0.0074       1.3778       0.0107       1.4493
      1.7500       0.0074       1.3785       0.0108       1.4504
      1.7600       0.0075       1.3793       0.0109       1.4515
      1.7700       0.0075       1.3800       0.0109       1.4526
      1.7800       0.0075       1.3808       0.0110       1.4537
      1.7900       0.0076       1.3815       0.0110       1.4548
      1.8000       0.0076       1.3823       0.0111       1.4559
      1.8100       0.0076       1.3830       0.0111       1.4570
      1.8200       0.0077       1.3838       0.0112       1.4581
      1.8300       0.0077       1.3846       0.0113       1.4592
      1.8400       0.0077       1.3853       0.0113       1.4603
      1.8500       0.0078       1.3861       0.0114       1.4615
      1.8600       0.0078       1.3869       0.0115       1.4626
      1.8700       0.0078       1.3877       0.0115       1.4638
      1.8800       0.0079       1.3884       0.0116       1.4649
      1.8900       0.0079       1.3892       0.0116       1.4661
      1.9000       0.0079       1.3900       0.0117       1.4672
      1.9100       0.0080       1.3908       0.0118       1.4684
      1.9200       0.0080       1.3916       0.0118       1.4696
      1.9300       0.0081       1.3924       0.0119       1.4708
      1.9400       0.0081       1.3932       0.0120       1.4720
      1.9500       0.0081       1.3940       0.0120       1.4732
      1.9600       0.0082       1.3949       0.0121       1.4744
      1.9700       0.0082       1.3957       0.0122       1.4756
      1.9800       0.0082       1.3965       0.0122       1.4768
      1.9900       0.0083       1.3973       0.0123       1.4780
      2.0000       0.0083       1.3981       0.0124       1.4793
      2.0100       0.0084       1.3990       0.0125       1.4805
      2.0200       0.0084       1.3998       0.0125       1.4817
      2.0300       0.0084       1.4007       0.0126       1.4830
      2.0400       0.0085       1.4015       0.0127       1.4843
      2.0500       0.0085       1.4024       0.0128       1.4855
      2.0600       0.0086       1.4032       0.0128       1.4868
      2.0700       0.0086       1.4041       0.0129       1.4881
      2.0800       0.0087       1.4049       0.0130       1.4894
      2.0900       0.0087       1.4058       0.0131       1.4907
      2.1000       0.0087       1.4067       0.0131       1.4920
      2.1100       0.0088       1.4075       0.0132       1.4933
      2.1200       0.0088       1.4084       0.0133       1.4946
      2.1300       0.0089       1.4093       0.0134       1.4960
      2.1400       0.0089       1.4102       0.0135       1.4973
      2.1500       0.0090       1.4111       0.0135       1.4986
      2.1600       0.0090       1.4120       0.0136       1.5000
      2.1700       0.0091       1.4129       0.0137       1.5014
      2.1800       0.0091       1.4138       0.0138       1.5027
      2.1900       0.0091       1.4147       0.0139       1.5041
      2.2000       0.0092       1.4156       0.0140       1.5055
      2.2100       0.0092       1.4165       0.0140       1.5069
      2.2200       0.0093       1.4175       0.0141       1.5083
      2.2300       0.0093       1.4184       0.0142       1.5097
      2.2400       0.0094       1.4193       0.0143       1.5111
      2.2500       0.0094       1.4203       0.0144       1.5126
      2.2600       0.0095       1.4212       0.0145       1.5140
      2.2700       0.0095       1.4222       0.0146       1.5155
      2.2800       0.0096       1.4231       0.0147       1.5169
      2.2900       0.0096       1.4241       0.0148       1.5184
      2.3000       0.0097       1.4250       0.0149       1.5199
      2.3100       0.0097       1.4260       0.0150       1.5214
      2.3200       0.0098       1.4270       0.0151       1.5229
      2.3300       0.0098       1.4280       0.0152       1.5244
      2.3400       0.0099       1.4290       0.0153       1.5259
      2.3500       0.0100       1.4299       0.0154       1.5274
     2.36000      0.01001      1.43095      0.01546      1.52895
     2.37000      0.01007      1.43195      0.01556      1.53050
     2.38000      0.01012      1.43295      0.01567      1.53205
     2.39000      0.01018      1.43397      0.01577      1.53362
     2.40000      0.01024      1.43499      0.01588      1.53520
     2.41000      0.01029      1.43601      0.01598      1.53679
     2.42000      0.01035      1.43704      0.01609      1.53839
     2.43000      0.01041      1.43808      0.01620      1.54000
     2.44000      0.01047      1.43912      0.01631      1.54162
     2.45000      0.01053      1.44017      0.01642      1.54325
     2.46000      0.01059      1.44122      0.01654      1.54490
     2.47000      0.01065      1.44228      0.01665      1.54655
     2.48000      0.01072      1.44335      0.01677      1.54822
     2.49000      0.01078      1.44442      0.01689      1.54990
     2.50000      0.01084      1.44550      0.01700      1.55159
     2.51000      0.01091      1.44658      0.01712      1.55329
     2.52000      0.01097      1.44768      0.01725      1.55500
     2.53000      0.01104      1.44877      0.01737      1.55673
     2.54000      0.01110      1.44988      0.01749      1.55847
     2.55000      0.01117      1.45099      0.01762      1.56022
     2.56000      0.01124      1.45211      0.01775      1.56198
     2.57000      0.01131      1.45323      0.01788      1.56376
     2.58000      0.01137      1.45436      0.01801      1.56555
     2.59000      0.01144      1.45550      0.01814      1.56735
     2.60000      0.01152      1.45665      0.01827      1.56916
     2.61000      0.01159      1.45780      0.01841      1.57099
     2.62000      0.01166      1.45896      0.01854      1.57283
     2.63000      0.01173      1.46012      0.01868      1.57469
     2.64000      0.01181      1.46130      0.01882      1.57656
     2.65000      0.01188      1.46248      0.01897      1.57844
     2.66000      0.01196      1.46367      0.01911      1.58034
     2.67000      0.01204      1.46487      0.01926      1.58225
     2.68000      0.01211      1.46607      0.01940      1.58418
     2.69000      0.01219      1.46728      0.01955      1.58612
     2.70000      0.01227      1.46850      0.01971      1.58808
     2.71000      0.01235      1.46973      0.01986      1.59005
     2.72000      0.01244      1.47097      0.02002      1.59203
     2.73000      0.01252      1.47221      0.02017      1.59404
     2.74000      0.01260      1.47346      0.02033      1.59605
     2.75000      0.01269      1.47472      0.02050      1.59809
     2.76000      0.01278      1.47599      0.02066      1.60014
     2.77000      0.01286      1.47727      0.02083      1.60220
     2.78000      0.01295      1.47856      0.02100      1.60429
     2.79000      0.01304      1.47985      0.02117      1.60639
     2.80000      0.01313      1.48116      0.02134      1.60851
     2.81000      0.01323      1.48247      0.02152      1.61064
     2.82000      0.01332      1.48380      0.02169      1.61279
     2.83000      0.01342      1.48513      0.02188      1.61496
     2.84000      0.01351      1.48647      0.02206      1.61715
     2.85000      0.01361      1.48782      0.02225      1.61936
     2.86000      0.01371      1.48918      0.02244      1.62158
     2.87000      0.01381      1.49055      0.02263      1.62382
     2.88000      0.01391      1.49193      0.02282      1.62609
     2.89000      0.01402      1.49332      0.02302      1.62837
     2.90000      0.01412      1.49473      0.02322      1.63067
     2.91000      0.01423      1.49614      0.02342      1.63299
     2.92000      0.01434      1.49756      0.02363      1.63534
     2.93000      0.01445      1.49899      0.02384      1.63770
     2.94000      0.01456      1.50044      0.02406      1.64008
     2.95000      0.01467      1.50189      0.02427      1.64249
     2.96000      0.01479      1.50336      0.02449      1.64491
     2.97000      0.01491      1.50484      0.02472      1.64736
     2.98000      0.01503      1.50633      0.02494      1.64983
     2.99000      0.01515      1.50783      0.02517      1.65233
     3.00000      0.01527      1.50935      0.02541      1.65484
     3.01000      0.01540      1.51087      0.02565      1.65738
     3.02000      0.01552      1.51241      0.02589      1.65994
     3.03000      0.01565      1.51396      0.02614      1.66253
     3.04000      0.01579      1.51553      0.02639      1.66514
     3.05000      0.01592      1.51710      0.02664      1.66778
     3.06000      0.01606      1.51869      0.02690      1.67044
     3.07000      0.01620      1.52030      0.02717      1.67313
     3.08000      0.01634      1.52192      0.02744      1.67585
     3.09000      0.01648      1.52355      0.02771      1.67859
     3.10000      0.01663      1.52520      0.02799      1.68135
     3.11000      0.01678      1.52686      0.02828      1.68415
     3.12000      0.01694      1.52853      0.02857      1.68697
     3.13000      0.01709      1.53022      0.02886      1.68983
     3.14000      0.01725      1.53193      0.02916      1.69271
     3.15000      0.01741      1.53365      0.02947      1.69562
     3.16000      0.01758      1.53539      0.02978      1.69856
     3.17000      0.01775      1.53714      0.03010      1.70153
     3.18000      0.01792      1.53892      0.03042      1.70454
     3.19000      0.01810      1.54070      0.03075      1.70758
     3.20000      0.01828      1.54251      0.03109      1.71064
     3.21000      0.01846      1.54433      0.03144      1.71375
     3.22000      0.01865      1.54618      0.03179      1.71688
     3.23000      0.01884      1.54804      0.03215      1.72005
     3.24000      0.01904      1.54991      0.03252      1.72326
     3.25000      0.01924      1.55181      0.03289      1.72650
     3.26000      0.01945      1.55373      0.03328      1.72978
     3.27000      0.01966      1.55567      0.03367      1.73310
     3.28000      0.01987      1.55763      0.03407      1.73646
     3.29000      0.02010      1.55961      0.03448      1.73985
     3.30000      0.02032      1.56161      0.03490      1.74329
     3.31000      0.02055      1.56363      0.03533      1.74677
     3.32000      0.02079      1.56568      0.03577      1.75028
     3.33000      0.02104      1.56775      0.03622      1.75385
     3.34000      0.02129      1.56984      0.03668      1.75745
     3.35000      0.02155      1.57196      0.03716      1.76110
     3.36000      0.02181      1.57411      0.03764      1.76480
     3.37000      0.02208      1.57628      0.03814      1.76855
     3.38000      0.02237      1.57847      0.03865      1.77234
     3.39000      0.02265      1.58069      0.03918      1.77619
     3.40000      0.02295      1.58294      0.03972      1.78008
     3.41000      0.02326      1.58522      0.04028      1.78403
     3.42000      0.02357      1.58753      0.04085      1.78803
     3.43000      0.02389      1.58987      0.04144      1.79208
     3.44000      0.02423      1.59224      0.04204      1.79620
     3.45000      0.02457      1.59465      0.04267      1.80037
     3.46000      0.02493      1.59708      0.04331      1.80460
     3.47000      0.02530      1.59955      0.04397      1.80889
     3.48000      0.02568      1.60206      0.04466      1.81325
     3.49000      0.02607      1.60460      0.04536      1.81767
     3.50000      0.02648      1.60718      0.04609      1.82216
     3.51000      0.02691      1.60980      0.04685      1.82672
     3.52000      0.02734      1.61245      0.04763      1.83135
     3.53000      0.02780      1.61515      0.04844      1.83605
     3.54000      0.02827      1.61790      0.04928      1.84083
     3.55000      0.02876      1.62068      0.05015      1.84569
     3.56000      0.02927      1.62351      0.05106      1.85063
     3.57000      0.02980      1.62639      0.05200      1.85566
     3.58000      0.03035      1.62932      0.05297      1.86077
     3.59000      0.03092      1.63231      0.05399      1.86597
     3.60000      0.03152      1.63534      0.05505      1.87127
     3.61000      0.03214      1.63843      0.05616      1.87666
     3.62000      0.03280      1.64158      0.05731      1.88216
     3.63000      0.03348      1.64478      0.05852      1.88776
     3.64000      0.03419      1.64805      0.05979      1.89347
     3.65000      0.03494      1.65138      0.06112      1.89929
     3.66000      0.03573      1.65478      0.06251      1.90523
     3.67000      0.03655      1.65826      0.06397      1.91128
     3.68000      0.03742      1.66180      0.06551      1.91747
     3.69000      0.03833      1.66542      0.06714      1.92379
     3.70000      0.03929      1.66913      0.06885      1.93025
     3.71000      0.04030      1.67291      0.07067      1.93686
     3.72000      0.04137      1.67679      0.07259      1.94361
     3.73000      0.04250      1.68075      0.07463      1.95052
     3.74000      0.04370      1.68481      0.07679      1.95760
     3.75000      0.04497      1.68898      0.07910      1.96485
     3.76000      0.04632      1.69325      0.08157      1.97228
     3.77000      0.04775      1.69763      0.08420      1.97989
     3.78000      0.04928      1.70213      0.08702      1.98771
     3.79000      0.05091      1.70675      0.09006      1.99572
     3.80000      0.05265      1.71150      0.09332      2.00395
     3.81000      0.05452      1.71639      0.09685      2.01240
     3.82000      0.05652      1.72142      0.10066      2.02108
     3.83000      0.05866      1.72660      0.10479      2.03000
     3.84000      0.06098      1.73194      0.10929      2.03917
     3.85000      0.06347      1.73745      0.11420      2.04858
     3.86000      0.06616      1.74313      0.11956      2.05825
     3.87000      0.06908      1.74899      0.12545      2.06817
     3.88000      0.07224      1.75505      0.13192      2.07834
     3.89000      0.07568      1.76130      0.13906      2.08875
     3.90000      0.07944      1.76777      0.14695      2.09938
     3.91000      0.08354      1.77445      0.15571      2.11021
     3.92000      0.08803      1.78136      0.16545      2.12118
     3.93000      0.09296      1.78850      0.17631      2.13224
     3.94000      0.09839      1.79586      0.18844      2.14328
    3.950001     0.104388     1.803463     0.202002     2.154176
    3.960000     0.111022     1.811289     0.217183     2.164743
    3.970001     0.118385     1.819331     0.234173     2.174738
    3.980000     0.126574     1.827567     0.253148     2.183833
    3.990001     0.135707     1.835964     0.274271     2.191603
    4.000000     0.145913     1.844472     0.297631     2.197501
    4.010001     0.157346     1.853018     0.323225     2.200852
    4.020000     0.170170     1.861495     0.350857     2.200854
    4.030001     0.184576     1.869761     0.380087     2.196612
    4.040000     0.200761     1.877614     0.410105     2.187217
    4.050001     0.218940     1.884785     0.439697     2.171889
    4.060000     0.239312     1.890914     0.467200     2.150197
    4.070001     0.262062     1.895534     0.490651     2.122279
    4.080000     0.287297     1.898040     0.508011     2.089070
    4.090001     0.315026     1.897688     0.517585     2.052316
    4.100000     0.345048     1.893588     0.518405     2.014423
    4.110001     0.376898     1.884739     0.510500     1.978012
    4.120000     0.409706     1.870119     0.494887     1.945466
    4.130001     0.442150     1.848830     0.473291     1.918487
    4.140000     0.472403     1.820345     0.447756     1.897968
    4.150001     0.498286     1.784750     0.420239     1.884010
    4.160000     0.517502     1.743016     0.392380     1.876158
    4.170001     0.528101     1.697019     0.365373     1.873621
    4.180000     0.528914     1.649413     0.340008     1.875491
    4.190001     0.519874     1.603131     0.316710     1.880877
    4.200000     0.502035     1.560886     0.295666     1.888981
    4.210001     0.477280     1.524658     0.276874     1.899141
    4.219999     0.447889     1.495523     0.260241     1.910816
    4.230000     0.416073     1.473657     0.245606     1.923590
    4.239999     0.383710     1.458593     0.232792     1.937140
    4.250000     0.352176     1.449460     0.221610     1.951231
    4.259999     0.322394     1.445242     0.211883     1.965682
    4.270000     0.294870     1.444930     0.203445     1.980371
    4.280001     0.269825     1.447619     0.196147     1.995204
    4.290000     0.247283     1.452546     0.189858     2.010118
    4.300001     0.227130     1.459095     0.184459     2.025076
    4.310000     0.209202     1.466781     0.179851     2.040048
    4.320001     0.193288     1.475235     0.175945     2.055024
    4.330000     0.179184     1.484175     0.172666     2.069994
    4.340001     0.166682     1.493397     0.169946     2.084963
    4.350000     0.155599     1.502750     0.167731     2.099931
    4.360001     0.145760     1.512125     0.165971     2.114912
    4.370000     0.137016     1.521446     0.164624     2.129910
    4.380001     0.129232     1.530662     0.163655     2.144943
    4.390000     0.122293     1.539735     0.163032     2.160017
    4.400001     0.116094     1.548647     0.162728     2.175154
    4.410000     0.110549     1.557383     0.162722     2.190363
    4.420001     0.105579     1.565940     0.162994     2.205661
    4.430000     0.101120     1.574315     0.163527     2.221061
     4.44000      0.09711      1.58251      0.16431      2.23658
     4.45000      0.09351      1.59054      0.16532      2.25223
     4.46000      0.09026      1.59840      0.16657      2.26804
     4.47000      0.08733      1.60611      0.16803      2.28400
     4.48000      0.08468      1.61367      0.16970      2.30015
     4.49000      0.08230      1.62109      0.17159      2.31649
     4.50000      0.08015      1.62838      0.17367      2.33304
     4.51000      0.07820      1.63555      0.17596      2.34982
     4.52000      0.07645      1.64261      0.17845      2.36684
     4.53000      0.07487      1.64957      0.18114      2.38412
     4.54000      0.07344      1.65643      0.18404      2.40168
     4.55000      0.07216      1.66321      0.18713      2.41952
     4.56000      0.07101      1.66991      0.19044      2.43768
     4.57000      0.06998      1.67654      0.19395      2.45616
     4.58000      0.06906      1.68310      0.19769      2.47499
     4.59000      0.06825      1.68961      0.20164      2.49418
     4.60000      0.06753      1.69608      0.20583      2.51375
     4.61000      0.06690      1.70249      0.21025      2.53372
     4.62000      0.06635      1.70887      0.21491      2.55412
     4.63000      0.06588      1.71522      0.21983      2.57497
     4.64000      0.06549      1.72154      0.22502      2.59627
     4.65000      0.06516      1.72784      0.23048      2.61807
     4.66000      0.06489      1.73412      0.23624      2.64037
     4.67000      0.06469      1.74039      0.24230      2.66322
     4.68000      0.06454      1.74665      0.24868      2.68663
     4.69000      0.06446      1.75291      0.25540      2.71063
     4.70000      0.06442      1.75918      0.26248      2.73525
     4.71000      0.06443      1.76545      0.26993      2.76053
     4.72000      0.06450      1.77173      0.27779      2.78648
     4.73000      0.06461      1.77802      0.28607      2.81315
     4.74000      0.06477      1.78433      0.29480      2.84057
     4.75000      0.06497      1.79067      0.30401      2.86878
     4.76000      0.06521      1.79703      0.31374      2.89781
     4.77000      0.06550      1.80342      0.32401      2.92772
     4.78000      0.06583      1.80984      0.33487      2.95854
     4.79000      0.06621      1.81630      0.34636      2.99032
     4.80000      0.06662      1.82280      0.35852      3.02310
     4.81000      0.06708      1.82934      0.37141      3.05695
     4.82000      0.06758      1.83593      0.38508      3.09191
     4.83000      0.06811      1.84258      0.39959      3.12806
     4.84000      0.06869      1.84927      0.41500      3.16543
     4.85000      0.06932      1.85603      0.43140      3.20411
     4.86000      0.06998      1.86285      0.44886      3.24416
     4.87000      0.07069      1.86974      0.46748      3.28566
     4.88000      0.07144      1.87669      0.48735      3.32869
     4.89000      0.07223      1.88372      0.50859      3.37333
     4.90000      0.07307      1.89083      0.53132      3.41966
     4.91000      0.07396      1.89802      0.55569      3.46779
     4.92000      0.07489      1.90529      0.58184      3.51781
     4.93000      0.07588      1.91266      0.60996      3.56984
     4.94000      0.07691      1.92012      0.64023      3.62397
     4.95000      0.07800      1.92768      0.67289      3.68032
     4.96000      0.07915      1.93534      0.70817      3.73902
     4.97000      0.08035      1.94311      0.74636      3.80019
     4.98000      0.08161      1.95100      0.78778      3.86395
     4.99000      0.08294      1.95900      0.83279      3.93045
     5.00000      0.08433      1.96713      0.88181      3.99980
     5.01000      0.08579      1.97538      0.93529      4.07213
     5.02000      0.08733      1.98378      0.99379      4.14758
     5.03000      0.08894      1.99231      1.05790      4.22623
     5.04000      0.09064      2.00099      1.12834      4.30819
     5.05000      0.09242      2.00982      1.20592      4.39348
     5.06000      0.09430      2.01882      1.29157      4.48215
     5.07000      0.09627      2.02798      1.38635      4.57410
     5.08000      0.09836      2.03732      1.49151      4.66922
    5.090000     0.100553     2.046839     1.608444     4.767190
    5.100001     0.102873     2.056551     1.738802     4.867588
    5.110000     0.105326     2.066460     1.884395     4.969684
    5.120001     0.107923     2.076578     2.047361     5.072489
    5.130000     0.110675     2.086910     2.229992     5.174512
    5.140001     0.113596     2.097469     2.434927     5.273750
    5.150000     0.116701     2.108260     2.664864     5.367379
    5.160001     0.120007     2.119297     2.922718     5.451662
    5.170000     0.123534     2.130582     3.211124     5.521566
    5.180001     0.127304     2.142129     3.532435     5.570609
    5.190000     0.131341     2.153943     3.887830     5.590520
    5.200001     0.135673     2.166032     4.276957     5.571179
    5.210000     0.140332     2.178398     4.696454     5.500744
    5.220001     0.145355     2.191047     5.139214     5.366249
    5.230000     0.150780     2.203973     5.592611     5.155084
    5.240001     0.156654     2.217173     6.038283     4.857111
    5.250000     0.163026     2.230630     6.451908     4.468081
    5.260001     0.169951     2.244324     6.805953     3.992543
    5.270000     0.177486     2.258216     7.073487     3.446584
    5.280000     0.185692     2.272258     7.234338     2.856855
    5.289999     0.194622     2.286374     7.279988     2.257475
    5.300000     0.204328     2.300472     7.216250     1.682842
    5.309999     0.214834     2.314426     7.061699     1.161497
    5.320000     0.226140     2.328091     6.842737     0.710627
    5.329999     0.238191     2.341292     6.587640     0.335375
     5.34000      0.25087      2.35386      6.32099      0.02999
    5.349999     0.263963     2.365633     6.060670    -0.218220
    5.360000     0.277187     2.376534     5.816280    -0.425333
    5.370001     0.290176     2.386593     5.589777    -0.607016
    5.380000     0.302554     2.396000     5.376814    -0.775807
    5.390001     0.314017     2.405131     5.168955    -0.939231
    5.400000     0.324407     2.414498     4.956755    -1.098793
    5.410001     0.333794     2.424681     4.732361    -1.250754
    5.420000     0.342468     2.436207     4.491976    -1.387807
    5.430001     0.350902     2.449473     4.236390    -1.501899
    5.440000     0.359657     2.464680     3.970594    -1.586516
    5.450001     0.369307     2.481855     3.701743    -1.638293
    5.460000     0.380372     2.500870     3.437570    -1.657164
    5.470001     0.393300     2.521505     3.184595    -1.645770
    5.480000     0.408449     2.543469     2.947729    -1.608377
    5.490001     0.426117     2.566453     2.729832    -1.549869
    5.500000     0.446525     2.590113     2.532285    -1.475070
    5.510001     0.469854     2.614116     2.355113    -1.388239
    5.520000     0.496221     2.638113     2.197655    -1.292987
    5.530001     0.525711     2.661788     2.058668    -1.192136
    5.540000     0.558360     2.684845     1.936785    -1.087902
    5.550001     0.594223     2.707065     1.830506    -0.981853
    5.560000     0.633389     2.728275     1.738481    -0.875153
    5.570001     0.676096     2.748343     1.659438    -0.768527
    5.580000     0.722734     2.767071     1.592355    -0.662492
    5.590001     0.773919     2.784093     1.536356    -0.557311
    5.600000     0.830374     2.798707     1.490806    -0.453198
    5.610001     0.892866     2.809776     1.455215    -0.350230
    5.620000     0.961945     2.815636     1.429284    -0.248523
    5.630001     1.037794     2.814100     1.412846    -0.148120
     5.64000      1.11987      2.80253      1.40590     -0.04915
     5.65000      1.20674      2.77802      1.40856      0.04828
    5.659999     1.295689     2.737739     1.421126     0.143931
    5.670001     1.382711     2.679458     1.444022     0.237524
    5.679999     1.462494     2.602264     1.477824     0.328563
    5.690001     1.529039     2.507213     1.523274     0.416402
    5.699999     1.576524     2.397879     1.581216     0.500055
    5.710001     1.600630     2.280130     1.652625     0.578223
    5.719999     1.599580     2.161414     1.738464     0.649071
    5.730000     1.574686     2.049220     1.839664     0.710214
    5.740001     1.529970     1.949748     1.956854     0.758503
    5.750000     1.471144     1.866871     2.090114     0.789976
    5.760001     1.404279     1.801839     2.238657     0.799828
    5.770000     1.334799     1.753757     2.400166     0.782512
    5.780001     1.266755     1.720210     2.570388     0.732128
    5.790000     1.202694     1.698098     2.742392     0.643206
    5.800001     1.143665     1.684241     2.906513     0.511831
    5.810000     1.089565     1.675896     3.050508     0.337288
    5.820001     1.039437     1.671057     3.161033     0.123382
    5.830000     0.991967     1.668621     3.225722    -0.120547
    5.840001     0.945850     1.668344     3.235996    -0.380441
    5.850000     0.900200     1.670635     3.189213    -0.639333
    5.860001     0.854682     1.676219     3.089366    -0.880795
    5.870000     0.809555     1.685783     2.946051    -1.091590
    5.880001     0.765430     1.699732     2.771922    -1.263764
    5.890000     0.723094     1.718089     2.580201    -1.394573
    5.900001     0.683243     1.740551     2.382419    -1.485692
    5.910000     0.646420     1.766583     2.187594    -1.541496
    5.920001     0.612918     1.795569     2.001790    -1.567712
    5.930000     0.582856     1.826878     1.828717    -1.570240
    5.940001     0.556179     1.859963     1.670058    -1.554531
    5.950000     0.532747     1.894346     1.526279    -1.525272
    5.960001     0.512344     1.929669     1.396896    -1.486276
    5.970000     0.494743     1.965638     1.281030    -1.440583
    5.980000     0.479702     2.002064     1.177488    -1.390501
    5.990000     0.466997     2.038793     1.085070    -1.337810
    6.000000     0.456415     2.075747     1.002536    -1.283796
    6.010000     0.447772     2.112860     0.928776    -1.229430
    6.020000     0.440898     2.150125     0.862728    -1.175380
    6.030000     0.435652     2.187528     0.803487    -1.122144
    6.040000     0.431909     2.225098     0.750211    -1.070036
    6.050000     0.429568     2.262853     0.702199    -1.019291
    6.060000     0.428541     2.300844     0.658804    -0.970029
    6.070000     0.428758     2.339104     0.619494    -0.922340
    6.080000     0.430163     2.377698     0.583780    -0.876240
    6.089999     0.432712     2.416670     0.551259    -0.831746
    6.100000     0.436375     2.456091     0.521561    -0.788819
    6.110001     0.441132     2.496019     0.494379    -0.747432
    6.120000     0.446972     2.536513     0.469442    -0.707544
    6.130001     0.453897     2.577654     0.446505    -0.669090
    6.140000     0.461913     2.619499     0.425367    -0.632022
    6.150001     0.471042     2.662136     0.405838    -0.596272
    6.160000     0.481309     2.705626     0.387762    -0.561792
    6.170001     0.492753     2.750063     0.370994    -0.528513
    6.180000     0.505418     2.795515     0.355414    -0.496388
    6.190001     0.519364     2.842082     0.340906    -0.465352
    6.200000     0.534654     2.889838     0.327376    -0.435361
    6.210001     0.551370     2.938892     0.314733    -0.406356
    6.220000     0.569598     2.989326     0.302905    -0.378296
    6.230001     0.589446     3.041257     0.291816    -0.351129
    6.240000     0.611027     3.094778     0.281409    -0.324817
    6.250000     0.634482     3.150016     0.271626    -0.299314
    6.260000     0.659955     3.207072     0.262418    -0.274585
    6.270000     0.687628     3.266090     0.253738    -0.250589
    6.280000     0.717687     3.327178     0.245549    -0.227296
    6.290000     0.750364     3.390493     0.237810    -0.204667
    6.300000     0.785899     3.456157     0.230491    -0.182679
    6.310000     0.824588     3.524337     0.223559    -0.161294
    6.320000     0.866742     3.595164     0.216989    -0.140492
    6.330000     0.912743     3.668819     0.210754    -0.120241
    6.340000     0.962994     3.745435     0.204833    -0.100522
     6.35000      1.01799      3.82520      0.19920     -0.08131
     6.36000      1.07826      3.90824      0.19385     -0.06258
     6.37000      1.14444      3.99474      0.18875     -0.04431
     6.38000      1.21723      4.08480      0.18388     -0.02648
      6.3900       1.2975       4.1786       0.1792      -0.0091
      6.4000       1.3861       4.2761       0.1748       0.0079
     6.41000      1.48423      4.37749      0.17059      0.02452
     6.42000      1.59308      4.48262      0.16655      0.04075
     6.43000      1.71412      4.59142      0.16269      0.05662
     6.44000      1.84899      4.70358      0.15899      0.07215
     6.45000      1.99965      4.81867      0.15545      0.08734
    6.460001     2.168288     4.935973     0.152058     0.102223
    6.470000     2.357372     5.054398     0.148806     0.116794
    6.480001     2.569810     5.172457     0.145688     0.131073
    6.490000     2.808711     5.287952     0.142697     0.145068
    6.500001     3.077645     5.397931     0.139826     0.158793
    6.510000     3.380250     5.498282     0.137069     0.172255
    6.520001     3.720426     5.583562     0.134421     0.185466
    6.530000     4.101642     5.646499     0.131877     0.198434
    6.540001     4.526894     5.677713     0.129432     0.211169
    6.550000     4.997443     5.665300     0.127082     0.223678
    6.560001     5.512263     5.594691     0.124821     0.235972
    6.570000     6.065934     5.448902     0.122648     0.248056
    6.580001     6.647513     5.209350     0.120557     0.259940
    6.590000     7.238030     4.858077     0.118546     0.271629
    6.600001     7.810066     4.380767     0.116611     0.283132
    6.610000     8.327497     3.771774     0.114750     0.294454
    6.620001     8.749353     3.038353     0.112959     0.305604
    6.630000     9.035408     2.204766     0.111237     0.316585
    6.640001     9.155004     1.310967     0.109580     0.327406
    6.650000     9.094349     0.408342     0.107987     0.338071
    6.660001     8.860420    -0.450599     0.106455     0.348588
    6.670000     8.479102    -1.220914     0.104984     0.358958
    6.680001     7.988212    -1.873154     0.103570     0.369192
    6.690000     7.429525    -2.394370     0.102213     0.379290
    6.700000     6.841038    -2.786632     0.100911     0.389261
     6.71000      6.25348     -3.06176      0.09966      0.39911
     6.72000      5.68832     -3.23706      0.09847      0.40884
     6.73000      5.15922     -3.33111      0.09732      0.41845
     6.74000      4.67300     -3.36162      0.09623      0.42796
     6.75000      4.23218     -3.34401      0.09519      0.43735
     6.76000      3.83592     -3.29105      0.09419      0.44665
     6.77000      3.48188     -3.21296      0.09325      0.45586
     6.78000      3.16652     -3.11763      0.09236      0.46497
     6.79000      2.88617     -3.01111      0.09151      0.47399
     6.80000      2.63697     -2.89788      0.09072      0.48293
     6.81000      2.41543     -2.78129      0.08997      0.49179
     6.82000      2.21816     -2.66373      0.08928      0.50057
     6.83000      2.04227     -2.54692      0.08863      0.50928
     6.84000      1.88514     -2.43210      0.08804      0.51793
     6.85000      1.74442     -2.32004      0.08751      0.52651
     6.86000      1.61816     -2.21133      0.08703      0.53502
     6.87000      1.50456     -2.10624      0.08661      0.54349
     6.88000      1.40213     -2.00500      0.08625      0.55190
     6.89000      1.30952     -1.90764      0.08596      0.56026
     6.90000      1.22563     -1.81418      0.08573      0.56858
     6.91000      1.14942     -1.72451      0.08558      0.57685
     6.92000      1.08006     -1.63858      0.08551      0.58508
     6.93000      1.01677     -1.55622      0.08552      0.59328
     6.94000      0.95892     -1.47731      0.08563      0.60143
     6.95000      0.90590     -1.40168      0.08584      0.60956
     6.96000      0.85724     -1.32921      0.08616      0.61765
     6.97000      0.81247     -1.25970      0.08661      0.62571
     6.98000      0.77123     -1.19304      0.08719      0.63372
     6.99000      0.73314     -1.12904      0.08793      0.64169
     7.00000      0.69794     -1.06760      0.08883      0.64961
     7.01000      0.66532     -1.00855      0.08993      0.65746
     7.02000      0.63507     -0.95178      0.09123      0.66522
     7.03000      0.60696     -0.89715      0.09277      0.67286
     7.04000      0.58081     -0.84456      0.09456      0.68036
     7.05000      0.55644     -0.79388      0.09661      0.68765
     7.06000      0.53372     -0.74502      0.09894      0.69469
    7.070001     0.512490    -0.697871     0.101539     0.701382
    7.079999     0.492645    -0.652351     0.104381     0.707646
    7.090001     0.474066    -0.608357     0.107407     0.713383
    7.099999     0.456659    -0.565821     0.110517     0.718494
    7.110001     0.440329    -0.524654     0.113563     0.722902
    7.119999     0.425001    -0.484793     0.116348     0.726575
    7.130001     0.410596    -0.446157     0.118651     0.729553
    7.139999     0.397052    -0.408694     0.120248     0.731964
    7.150000     0.384304    -0.372330     0.120968     0.734027
    7.159999     0.372302    -0.337020     0.120730     0.736025
    7.170000     0.360991    -0.302697     0.119569     0.738252
    7.179999     0.350328    -0.269321     0.117621     0.740958
    7.190000     0.340270    -0.236832     0.115093     0.744315
    7.200001     0.330778    -0.205190     0.112217     0.748402
    7.210000     0.321820    -0.174356     0.109204     0.753214
    7.220001     0.313360    -0.144279     0.106227     0.758692
    7.230000     0.305372    -0.114929     0.103409     0.764745
     7.24000      0.29783     -0.08626      0.10083      0.77127
     7.25000      0.29070     -0.05825      0.09852      0.77819
     7.26000      0.28397     -0.03084      0.09652      0.78540
    7.270       0.2776       -.4027E-2    0.9480E-1    0.7928   
     7.28000      0.27162      0.02224      0.09338      0.80047
     7.29000      0.26596      0.04798      0.09222      0.80824
     7.30000      0.26063      0.07322      0.09131      0.81612
     7.31000      0.25560      0.09799      0.09063      0.82410
     7.32000      0.25087      0.12233      0.09017      0.83215
     7.33000      0.24642      0.14624      0.08992      0.84027
     7.34000      0.24224      0.16976      0.08985      0.84846
     7.35000      0.23832      0.19291      0.08997      0.85671
     7.36000      0.23465      0.21570      0.09027      0.86503
     7.37000      0.23123      0.23817      0.09073      0.87341
     7.38000      0.22805      0.26034      0.09137      0.88187
     7.39000      0.22509      0.28222      0.09217      0.89042
     7.40000      0.22236      0.30383      0.09314      0.89904
     7.41000      0.21985      0.32519      0.09428      0.90777
     7.42000      0.21756      0.34633      0.09560      0.91660
     7.43000      0.21548      0.36726      0.09710      0.92554
     7.44000      0.21361      0.38800      0.09879      0.93461
    7.450000     0.211944     0.408563     0.100689     0.943805
    7.460001     0.210487     0.428976     0.102804     0.953150
    7.470000     0.209237     0.449250     0.105151     0.962650
    7.480000     0.208194     0.469408     0.107751     0.972320
    7.490000     0.207360     0.489462     0.110623     0.982170
    7.500000     0.206736     0.509436     0.113794     0.992215
    7.510000     0.206327     0.529342     0.117291     1.002466
    7.520000     0.206135     0.549204     0.121148     1.012939
    7.529999     0.206166     0.569034     0.125403     1.023644
    7.540000     0.206425     0.588856     0.130101     1.034597
    7.549999     0.206921     0.608684     0.135290     1.045807
    7.560000     0.207662     0.628541     0.141031     1.057287
    7.570001     0.208657     0.648445     0.147390     1.069046
    7.580000     0.209918     0.668411     0.154443     1.081086
    7.590001     0.211459     0.688467     0.162281     1.093413
    7.600000     0.213293     0.708627     0.171005     1.106016
    7.610001     0.215439     0.728917     0.180736     1.118887
    7.620000     0.217915     0.749355     0.191608     1.131995
    7.630001     0.220744     0.769967     0.203781     1.145299
    7.640000     0.223951     0.790770     0.217433     1.158730
    7.650001     0.227563     0.811793     0.232771     1.172194
    7.660000     0.231614     0.833053     0.250021     1.185548
    7.670001     0.236139     0.854580     0.269445     1.198601
    7.680000     0.241179     0.876390     0.291313     1.211082
    7.690001     0.246783     0.898511     0.315922     1.222630
    7.700000     0.253001     0.920958     0.343550     1.232760
    7.710001     0.259894     0.943755     0.374455     1.240839
    7.720000     0.267527     0.966911     0.408799     1.246051
    7.730000     0.275979     0.990444     0.446609     1.247386
    7.740000     0.285328     1.014348     0.487636     1.243628
    7.750000     0.295668     1.038627     0.531279     1.233405
    7.760000     0.307096     1.063253     0.576383     1.215300
    7.770000     0.319715     1.088201     0.621185     1.188043
    7.780000     0.333626     1.113410     0.663213     1.150847
    7.790000     0.348928     1.138816     0.699485     1.103742
    7.800000     0.365699     1.164315     0.726815     1.047954
    7.810000     0.383997     1.189806     0.742441     0.985974
    7.820000     0.403830     1.215165     0.744625     0.921398
    7.830000     0.425168     1.240309     0.733133     0.858278
    7.840000     0.447925     1.265187     0.709297     0.800427
    7.850000     0.472004     1.289853     0.675642     0.750689
    7.860000     0.497323     1.314467     0.635302     0.710669
    7.870000     0.523908     1.339321     0.591361     0.680711
    7.880000     0.551942     1.364772     0.546471     0.660233
    7.890000     0.581838     1.391195     0.502597     0.648065
    7.900000     0.614217     1.418857     0.461071     0.642811
    7.910000     0.649898     1.447868     0.422635     0.643070
    7.920000     0.689802     1.478099     0.387633     0.647574
    7.930000     0.734934     1.509196     0.356101     0.655253
    7.940001     0.786306     1.540545     0.327911     0.665236
    7.950000     0.844922     1.571280     0.302835     0.676838
    7.960001     0.911793     1.600262     0.280587     0.689539
    7.970000     0.987841     1.626001     0.260884     0.702939
    7.980001     1.073923     1.646613     0.243439     0.716752
    7.990000     1.170621     1.659710     0.227997     0.730759
    8.000001     1.278179     1.662346     0.214314     0.744813
    8.010000     1.396105     1.650975     0.202186     0.758801
    8.020000     1.522963     1.621528     0.191421     0.772655
    8.030000     1.655795     1.569683     0.181862     0.786322
    8.040001     1.789889     1.491342     0.173364     0.799777
    8.050000     1.918406     1.383536     0.165808     0.813000
    8.060000     2.032755     1.245406     0.159085     0.825989
    8.070000     2.123306     1.079430     0.153107     0.838741
    8.080001     2.181103     0.891878     0.147792     0.851267
    8.090000     2.199682     0.692716     0.143076     0.863572
    8.100000     2.176795     0.493927     0.138898     0.875673
    8.110000     2.114995     0.307543     0.135209     0.887581
    8.120001     2.020911     0.143206     0.131965     0.899313
    8.130        1.904       0.7037E-2    0.1291       0.9109   
     8.14000      1.77268     -0.09881      0.12667      0.92231
    8.150000     1.636570    -0.175287     0.124567     0.933606
    8.160001     1.501907    -0.225498     0.122790     0.944792
    8.170000     1.373319    -0.253513     0.121324     0.955880
    8.180000     1.253539    -0.263624     0.120154     0.966890
    8.190000     1.143973    -0.259807     0.119269     0.977834
    8.200001     1.044962    -0.245496     0.118660     0.988731
    8.210000     0.956278    -0.223508     0.118322     0.999592
    8.220000     0.877268    -0.196073     0.118252     1.010437
    8.230000     0.807152    -0.164923     0.118452     1.021276
    8.240001     0.745036    -0.131355     0.118923     1.032127
     8.25000      0.69009     -0.09635      0.11967      1.04300
     8.26000      0.64148     -0.06062      0.12071      1.05392
     8.27000      0.59850     -0.02468      0.12205      1.06488
     8.28000      0.56047      0.01111      0.12370      1.07591
     8.29000      0.52684      0.04648      0.12569      1.08702
     8.30000      0.49710      0.08126      0.12804      1.09821
    8.310001     0.470805     0.115345     0.130778     1.109490
    8.320000     0.447603     0.148648     0.133939     1.120869
    8.330001     0.427163     0.181136     0.137561     1.132351
    8.340000     0.409218     0.212770     0.141689     1.143928
    8.350001     0.393529     0.243540     0.146372     1.155597
    8.360000     0.379899     0.273422     0.151665     1.167337
    8.370001     0.368144     0.302404     0.157628     1.179129
    8.380000     0.358103     0.330451     0.164322     1.190935
    8.390000     0.349613     0.357536     0.171813     1.202713
    8.400000     0.342509     0.383611     0.180162     1.214405
    8.410001     0.336603     0.408643     0.189435     1.225952
    8.420000     0.331684     0.432601     0.199692     1.237282
    8.430000     0.327512     0.455506     0.211006     1.248328
    8.440000     0.323831     0.477421     0.223460     1.259010
    8.450001     0.320395     0.498502     0.237174     1.269236
    8.460000     0.317005     0.518966     0.252294     1.278872
    8.470000     0.313544     0.539104     0.269011     1.287719
    8.480000     0.310004     0.559206     0.287519     1.295465
    8.490001     0.306473     0.579545     0.307995     1.301670
    8.500000     0.303112     0.600313     0.330518     1.305734
    8.510000     0.300113     0.621632     0.355024     1.306913
    8.520000     0.297661     0.643542     0.381185     1.304340
    8.530001     0.295916     0.666044     0.408356     1.297106
    8.540000     0.295002     0.689095     0.435463     1.284396
    8.550000     0.295011     0.712660     0.461021     1.265667
    8.559999     0.296011     0.736689     0.483177     1.240906
    8.570001     0.298054     0.761162     0.499969     1.210806
    8.580000     0.301187     0.786051     0.509652     1.176889
    8.590000     0.305457     0.811360     0.511122     1.141331
    8.599999     0.310916     0.837086     0.504191     1.106654
    8.610001     0.317630     0.863251     0.489642     1.075209
    8.620000     0.325674     0.889869     0.469021     1.048800
    8.630000     0.335146     0.916971     0.444247     1.028433
    8.639999     0.346158     0.944576     0.417248     1.014357
    8.650001     0.358851     0.972718     0.389659     1.006219
    8.660001     0.373389     1.001412     0.362724     1.003310
    8.670000     0.389962     1.030668     0.337273     1.004767
    8.680001     0.408806     1.060497     0.313774     1.009721
    8.690001     0.430181     1.090871     0.292446     1.017385
    8.700001     0.454408     1.121758     0.273316     1.027094
    8.710000     0.481841     1.153071     0.256307     1.038304
    8.720001     0.512908     1.184694     0.241271     1.050594
    8.730000     0.548081     1.216424     0.228041     1.063636
    8.740001     0.587920     1.247988     0.216430     1.077190
    8.750000     0.633029     1.278977     0.206269     1.091071
    8.760001     0.684102     1.308839     0.197391     1.105153
    8.770000     0.741856     1.336798     0.189651     1.119340
    8.780001     0.807064     1.361825     0.182916     1.133571
    8.790000     0.880428     1.382535     0.177072     1.147800
    8.800001     0.962573     1.397141     0.172017     1.162005
    8.809999     1.053811     1.403353     0.167665     1.176166
    8.820001     1.154036     1.398358     0.163938     1.190281
    8.830000     1.262324     1.378838     0.160773     1.204345
    8.840000     1.376707     1.341120     0.158113     1.218369
    8.849999     1.493671     1.281562     0.155910     1.232354
    8.860001     1.608037     1.197125     0.154121     1.246316
    8.870000     1.712838     1.086333     0.152713     1.260262
    8.880000     1.799990     0.950139     0.151654     1.274210
    8.889999     1.861313     0.792817     0.150918     1.288169
    8.900001     1.890254     0.621860     0.150484     1.302159
    8.910000     1.883405     0.447281     0.150333     1.316189
    8.920000     1.841465     0.279661     0.150450     1.330280
    8.929999     1.769045     0.128367     0.150820     1.344442
    8.940        1.673       -.1602E-3    0.1514        1.359   
    8.950000     1.562891    -0.102780     0.152286     1.373051
    8.960000     1.445268    -0.179470     0.153366     1.387529
    8.969999     1.326963    -0.232324     0.154670     1.402140
    8.980000     1.212557    -0.264680     0.156196     1.416907
    8.990000     1.105032    -0.280241     0.157941     1.431839
    9.000000     1.005939    -0.282595     0.159907     1.446959
    9.009999     0.915911    -0.274905     0.162094     1.462279
    9.020000     0.834862    -0.259809     0.164505     1.477820
    9.030001     0.762357    -0.239424     0.167145     1.493598
    9.040000     0.697746    -0.215407     0.170018     1.509627
    9.050001     0.640260    -0.189008     0.173132     1.525932
    9.060000     0.589160    -0.161180     0.176493     1.542526
    9.070001     0.543705    -0.132612     0.180114     1.559435
    9.080000     0.503241    -0.103820     0.184004     1.576674
     9.09000      0.46715     -0.07516      0.18818      1.59427
     9.10000      0.43492     -0.04689      0.19265      1.61224
     9.11000      0.40605     -0.01917      0.19743      1.63061
    9.120       0.3802       0.7859E-2    0.2025        1.649   
     9.13000      0.35685      0.03415      0.20802      1.66864
     9.14000      0.33585      0.05966      0.21386      1.68835
     9.15000      0.31687      0.08437      0.22011      1.70857
    9.160000     0.299670     0.108284     0.226790     1.729321
    9.170001     0.284056     0.131425     0.233934     1.750634
    9.180000     0.269852     0.153806     0.241579     1.772539
    9.190001     0.256900     0.175462     0.249765     1.795076
    9.200000     0.245071     0.196415     0.258538     1.818272
    9.210001     0.234245     0.216704     0.267950     1.842175
    9.219999     0.224323     0.236354     0.278055     1.866813
    9.230000     0.215213     0.255404     0.288922     1.892236
    9.240000     0.206837     0.273880     0.300619     1.918478
    9.250001     0.199125     0.291819     0.313233     1.945592
    9.259999     0.192016     0.309245     0.326851     1.973613
    9.270000     0.185454     0.326192     0.341584     2.002598
    9.280000     0.179393     0.342683     0.357545     2.032582
    9.290000     0.173787     0.358751     0.374875     2.063622
    9.299999     0.168601     0.374414     0.393725     2.095751
    9.310000     0.163799     0.389703     0.414275     2.129022
    9.320000     0.159351     0.404635     0.436723     2.163458
    9.330000     0.155230     0.419238     0.461308     2.199098
    9.339999     0.151412     0.433526     0.488286     2.235945
    9.350000     0.147875     0.447525     0.517972     2.274008
    9.360000     0.144601     0.461247     0.550708     2.313244
    9.370000     0.141571     0.474717     0.586905     2.353601
    9.379999     0.138771     0.487945     0.627010     2.394953
    9.390000     0.136186     0.500954     0.671559     2.437130
    9.400001     0.133806     0.513754     0.721135     2.479854
    9.410000     0.131619     0.526359     0.776388     2.522723
    9.420001     0.129615     0.538787     0.838054     2.565192
    9.430000     0.127788     0.551048     0.906884     2.606478
    9.440001     0.126128     0.563157     0.983683     2.645552
    9.450000     0.124633     0.575122     1.069164     2.681010
    9.460001     0.123295     0.586959     1.163951     2.711058
    9.470000     0.122112     0.598675     1.268319     2.733395
    9.480000     0.121081     0.610283     1.382083     2.745225
    9.490000     0.120201     0.621789     1.504189     2.743290
    9.500001     0.119470     0.633205     1.632499     2.724072
    9.510000     0.118890     0.644535     1.763301     2.684214
    9.520000     0.118463     0.655789     1.891278     2.621169
    9.530000     0.118190     0.666967     2.009481     2.534137
    9.540001     0.118076     0.678076     2.110160     2.424916
    9.550000     0.118124     0.689113     2.185877     2.298585
    9.560000     0.118339     0.700079     2.231249     2.163202
    9.570000     0.118724     0.710964     2.244274     2.028834
    9.580001     0.119281     0.721763     2.227008     1.905581
    9.590000     0.120010     0.732457     2.185063     1.801876
    9.600000     0.120902     0.743032     2.126243     1.723106
    9.610000     0.121941     0.753462     2.058980     1.671458
    9.620001     0.123102     0.763729     1.990951     1.646323
    9.630000     0.124341     0.773813     1.928430     1.645259
    9.640000     0.125605     0.783715     1.876030     1.664852
    9.650000     0.126828     0.793445     1.836955     1.701414
    9.660001     0.127948     0.803051     1.813283     1.751418
    9.669999     0.128910     0.812598     1.806382     1.811652
    9.680000     0.129691     0.822179     1.817196     1.879300
    9.690000     0.130297     0.831888     1.846497     1.951803
    9.700001     0.130770     0.841815     1.895064     2.026813
    9.709999     0.131172     0.852019     1.963744     2.101938
    9.720000     0.131576     0.862540     2.053556     2.174659
    9.730000     0.132053     0.873387     2.165573     2.242032
    9.740000     0.132661     0.884557     2.300953     2.300560
    9.750001     0.133446     0.896033     2.460632     2.345904
    9.760000     0.134439     0.907794     2.645056     2.372705
    9.770001     0.135663     0.919828     2.853829     2.374454
    9.780000     0.137133     0.932116     3.084856     2.343465
    9.790001     0.138860     0.944654     3.333803     2.271151
    9.800000     0.140851     0.957436     3.592931     2.148789
    9.810000     0.143117     0.970465     3.850694     1.968747
    9.820000     0.145664     0.983743     4.091292     1.726592
    9.830001     0.148505     0.997283     4.295935     1.423157
    9.840000     0.151651     1.011090     4.444936     1.066817
    9.850000     0.155119     1.025182     4.521613     0.673675
    9.860000     0.158927     1.039571     4.515993     0.266407
    9.870001     0.163098     1.054278     4.427517    -0.129995
    9.880000     0.167655     1.069316     4.265182    -0.492436
    9.890000     0.172631     1.084712     4.044989    -0.804130
    9.900000     0.178059     1.100480     3.786303    -1.055968
    9.910001     0.183980     1.116648     3.507862    -1.246498
    9.920000     0.190438     1.133232     3.225555    -1.379731
    9.930000     0.197488     1.150262     2.951013    -1.463070
    9.940000     0.205187     1.167755     2.692004    -1.505135
    9.950001     0.213607     1.185739     2.452754    -1.514482
    9.960000     0.222825     1.204228     2.235152    -1.498769
    9.970000     0.232935     1.223248     2.039250    -1.464442
    9.980000     0.244036     1.242808     1.864190    -1.416724
    9.990001     0.256253     1.262924     1.708429    -1.359674
    10.00000      0.26972      1.28359      1.57028     -1.29643
# 
# 04/09/2018 at 16:09 YAMBO @ narro [start]
# 04/09/2018 at 16:09               [end]
#  
# Timing   [Min/Max/Average]: 08s/08s/08s
#
# .-Input file : yambo.in
# | optics                         # [R OPT] Optics
# | bse                            # [R BSE] Bethe Salpeter Equation.
# | bsk                            # [R BSK] Bethe Salpeter Equation kernel
# | bss                            # [R BSS] Bethe Salpeter Equation solver
# | BoseTemp= 0.000000     eV      # Bosonic Temperature
# | FFTGvecs=  3473        RL      # [FFT] Plane-waves
# | BSEmod= "resonant"             # [BSE] resonant/retarded/coupling
# | BSKmod= "Hartree"              # [BSE] IP/Hartree/HF/ALDA/SEX/BSfxc
# | BSSmod= "d"                    # [BSS] (h)aydock/(d)iagonalization/(i)nversion/(t)ddft`
# | BSENGexx=  63          RL      # [BSK] Exchange components
# | % BEnRange
# | -10.00000 | 10.00000 | eV      # [BSS] Energy range
# | %
# | % BDmRange
# |   0.10000 |  0.10000 | eV      # [BSS] Damping range
# | %
# | BEnSteps= 2001                 # [BSS] Energy steps
# | % BLongDir
# | 0.1000E-4 | 0.000    | 0.000    |        # [BSS] [cc] Electric Field
# | %
# | % BSEQptR
# |   1 |  4 |                     # [BSK] Transferred momenta range
# | %
# | % BSEBands
# |   3 | 10 |                     # [BSK] Bands range
# | %
