#                                                           
# :::   :::   :::     ::::    ::::  :::::::::   ::::::::    
# :+:   :+: :+: :+:   +:+:+: :+:+:+ :+:    :+: :+:    :+:   
#  +:+ +:+ +:+   +:+  +:+ +:+:+ +:+ +:+    +:+ +:+    +:+   
#   +#++: +#++:++#++: +#+  +:+  +#+ +#++:++#+  +#+    +:+   
#    +#+  +#+     +#+ +#+       +#+ +#+    +#+ +#+    +#+   
#    #+#  #+#     #+# #+#       #+# #+#    #+# #+#    #+#   
#    ###  ###     ### ###       ### #########   ########    
#                                                           
#                                                           
#        Version 4.1.1 Revision 13967 Hash eb8c92c          
#                        MPI Build                          
#                http://www.yambo-code.org                  
#
# BSK|Identifier              :852
#    |Dimension               :32
#    |Bands                   :7 - 10
#    |Exchange           [res]: yes
#    |Correlation        [res]: yes
#    |Kernel`s coupling       : no
#    |Exchange           [cpl]: no
#    |Correlation        [cpl]: no
#    |W interaction is bare   : no
#    |ALDA kernel in R-space  : no
#    |RL vectors    [exchange]:51
#    |RL vectors [correlation]:51
#    |E/h energy range    [ev]:-1.000000 - -1.000000
#    |Coupling range     [o/o]: 100.0000 -  100.0000
#  W |Interaction is diagonal : no
#    |Matrix size             :51
#    |Bands                   :1 - 60
#    |e/h energy range    [ev]:-1.000000 - -1.000000
#    |Poles              [o/o]: 100.0000
#    |RL vectors in the sum   :3473
#    |[r,Vnl] included        : yes
#    |Field direction         :0.1000E-4  0.000000  0.000000
#    |Coulomb Cutoff          :none
#    |xc-Kernel               :none
# RIM|RL components      [col]:0
#    |Random points      [col]:0
#
# Electron-Hole pairs that contributes to Excitonic State 3 more than 5%
#
#  E    [eV]  Amplitude
#  
  4.782     0.1340E-2
  4.783     0.1348E-2
  4.785     0.1355E-2
  4.786     0.1363E-2
  4.788     0.1371E-2
  4.789     0.1379E-2
  4.791     0.1387E-2
  4.792     0.1396E-2
  4.794     0.1404E-2
  4.796     0.1412E-2
  4.797     0.1421E-2
  4.799     0.1429E-2
  4.800     0.1438E-2
  4.802     0.1446E-2
  4.803     0.1455E-2
  4.805     0.1464E-2
  4.806     0.1473E-2
  4.808     0.1482E-2
  4.810     0.1491E-2
  4.811     0.1500E-2
  4.813     0.1509E-2
  4.814     0.1518E-2
  4.816     0.1528E-2
  4.817     0.1537E-2
  4.819     0.1547E-2
  4.821     0.1556E-2
  4.822     0.1566E-2
  4.824     0.1576E-2
  4.825     0.1586E-2
  4.827     0.1596E-2
  4.828     0.1606E-2
  4.830     0.1616E-2
  4.831     0.1627E-2
  4.833     0.1637E-2
  4.835     0.1648E-2
  4.836     0.1658E-2
  4.838     0.1669E-2
  4.839     0.1680E-2
  4.841     0.1691E-2
  4.842     0.1702E-2
  4.844     0.1713E-2
  4.845     0.1725E-2
  4.847     0.1736E-2
  4.849     0.1748E-2
  4.850     0.1759E-2
  4.852     0.1771E-2
  4.853     0.1783E-2
  4.855     0.1795E-2
  4.856     0.1807E-2
  4.858     0.1819E-2
  4.859     0.1832E-2
  4.861     0.1844E-2
  4.863     0.1857E-2
  4.864     0.1870E-2
  4.866     0.1883E-2
  4.867     0.1896E-2
  4.869     0.1909E-2
  4.870     0.1922E-2
  4.872     0.1936E-2
  4.873     0.1949E-2
  4.875     0.1963E-2
  4.877     0.1977E-2
  4.878     0.1991E-2
  4.880     0.2006E-2
  4.881     0.2020E-2
  4.883     0.2034E-2
  4.884     0.2049E-2
  4.886     0.2064E-2
  4.887     0.2079E-2
  4.889     0.2094E-2
  4.891     0.2110E-2
  4.892     0.2125E-2
  4.894     0.2141E-2
  4.895     0.2157E-2
  4.897     0.2173E-2
  4.898     0.2190E-2
  4.900     0.2206E-2
  4.901     0.2223E-2
  4.903     0.2240E-2
  4.905     0.2257E-2
  4.906     0.2274E-2
  4.908     0.2291E-2
  4.909     0.2309E-2
  4.911     0.2327E-2
  4.912     0.2345E-2
  4.914     0.2363E-2
  4.915     0.2382E-2
  4.917     0.2401E-2
  4.919     0.2420E-2
  4.920     0.2439E-2
  4.922     0.2459E-2
  4.923     0.2478E-2
  4.925     0.2498E-2
  4.926     0.2518E-2
  4.928     0.2539E-2
  4.930     0.2560E-2
  4.931     0.2581E-2
  4.933     0.2602E-2
  4.934     0.2623E-2
  4.936     0.2645E-2
  4.937     0.2667E-2
  4.939     0.2690E-2
  4.940     0.2712E-2
  4.942     0.2735E-2
  4.944     0.2758E-2
  4.945     0.2782E-2
  4.947     0.2806E-2
  4.948     0.2830E-2
  4.950     0.2854E-2
  4.951     0.2879E-2
  4.953     0.2904E-2
  4.954     0.2930E-2
  4.956     0.2956E-2
  4.958     0.2982E-2
  4.959     0.3009E-2
  4.961     0.3036E-2
  4.962     0.3063E-2
  4.964     0.3090E-2
  4.965     0.3119E-2
  4.967     0.3147E-2
  4.968     0.3176E-2
  4.970     0.3205E-2
  4.972     0.3235E-2
  4.973     0.3265E-2
  4.975     0.3296E-2
  4.976     0.3327E-2
  4.978     0.3358E-2
  4.979     0.3390E-2
  4.981     0.3422E-2
  4.982     0.3455E-2
  4.984     0.3488E-2
  4.986     0.3522E-2
  4.987     0.3557E-2
  4.989     0.3592E-2
  4.990     0.3627E-2
  4.992     0.3663E-2
  4.993     0.3699E-2
  4.995     0.3736E-2
  4.996     0.3774E-2
  4.998     0.3812E-2
  5.000     0.3851E-2
  5.001     0.3891E-2
  5.003     0.3931E-2
  5.004     0.3971E-2
  5.006     0.4013E-2
  5.007     0.4055E-2
  5.009     0.4097E-2
  5.010     0.4141E-2
  5.012     0.4185E-2
  5.014     0.4230E-2
  5.015     0.4275E-2
  5.017     0.4322E-2
  5.018     0.4369E-2
  5.020     0.4417E-2
  5.021     0.4466E-2
  5.023     0.4515E-2
  5.025     0.4566E-2
  5.026     0.4617E-2
  5.028     0.4669E-2
  5.029     0.4722E-2
  5.031     0.4776E-2
  5.032     0.4831E-2
  5.034     0.4887E-2
  5.035     0.4944E-2
  5.037     0.5002E-2
    5.0385     0.0051
    5.0401     0.0051
    5.0416     0.0052
    5.0432     0.0052
    5.0448     0.0053
    5.0463     0.0054
    5.0479     0.0054
    5.0494     0.0055
    5.0510     0.0056
    5.0525     0.0056
    5.0541     0.0057
    5.0557     0.0058
    5.0572     0.0059
    5.0588     0.0059
    5.0603     0.0060
    5.0619     0.0061
    5.0634     0.0062
    5.0650     0.0063
    5.0666     0.0063
    5.0681     0.0064
    5.0697     0.0065
    5.0712     0.0066
    5.0728     0.0067
    5.0743     0.0068
    5.0759     0.0069
    5.0775     0.0070
    5.0790     0.0071
    5.0806     0.0072
    5.0821     0.0073
    5.0837     0.0074
    5.0852     0.0075
    5.0868     0.0076
    5.0884     0.0077
    5.0899     0.0078
    5.0915     0.0080
    5.0930     0.0081
    5.0946     0.0082
    5.0961     0.0083
    5.0977     0.0085
    5.0993     0.0086
    5.1008     0.0087
    5.1024     0.0089
    5.1039     0.0090
    5.1055     0.0092
    5.1070     0.0093
    5.1086     0.0095
    5.1102     0.0096
    5.1117     0.0098
    5.1133     0.0100
   5.11483    0.01013
   5.11639    0.01031
   5.11795    0.01049
   5.11950    0.01067
   5.12106    0.01086
   5.12262    0.01106
   5.12418    0.01126
   5.12573    0.01147
   5.12729    0.01169
   5.12885    0.01191
   5.13040    0.01214
   5.13196    0.01237
   5.13352    0.01261
   5.13508    0.01286
   5.13663    0.01311
   5.13819    0.01338
   5.13975    0.01365
   5.14131    0.01393
   5.14286    0.01422
   5.14442    0.01452
   5.14598    0.01483
   5.14754    0.01515
   5.14909    0.01548
   5.15065    0.01582
   5.15221    0.01617
   5.15376    0.01654
   5.15532    0.01692
   5.15688    0.01731
   5.15844    0.01772
   5.15999    0.01814
   5.16155    0.01858
   5.16311    0.01903
   5.16467    0.01950
   5.16622    0.01999
   5.16778    0.02050
   5.16934    0.02102
   5.17090    0.02157
   5.17245    0.02214
   5.17401    0.02274
   5.17557    0.02336
   5.17712    0.02401
   5.17868    0.02468
   5.18024    0.02539
   5.18180    0.02612
   5.18335    0.02689
   5.18491    0.02770
   5.18647    0.02854
   5.18802    0.02942
   5.18958    0.03034
   5.19114    0.03131
   5.19270    0.03233
   5.19425    0.03340
   5.19581    0.03453
   5.19737    0.03571
   5.19893    0.03696
   5.20048    0.03827
   5.20204    0.03966
   5.20360    0.04112
   5.20516    0.04267
   5.20671    0.04431
   5.20827    0.04605
   5.20983    0.04790
   5.21138    0.04985
   5.21294    0.05194
   5.21450    0.05415
   5.21606    0.05652
   5.21761    0.05904
   5.21917    0.06174
   5.22073    0.06463
   5.22229    0.06772
   5.22384    0.07105
   5.22540    0.07462
   5.22696    0.07847
   5.22851    0.08263
   5.23007    0.08712
   5.23163    0.09199
   5.23319    0.09727
  5.234744   0.103016
  5.236302   0.109274
  5.237859   0.116106
  5.239416   0.123584
  5.240973   0.131785
  5.242531   0.140803
  5.244088   0.150739
  5.245645   0.161718
  5.247203   0.173878
  5.248760   0.187374
  5.250317   0.202398
  5.251874   0.219159
  5.253432   0.237894
  5.254989   0.258890
  5.256546   0.282456
  5.258104   0.308935
  5.259661   0.338723
  5.261218   0.372213
  5.262775   0.409835
  5.264333   0.451967
  5.265890   0.498896
  5.267447   0.550780
  5.269005   0.607427
  5.270562   0.668243
  5.272120   0.731930
  5.273676   0.796336
  5.275234   0.858397
  5.276792   0.914106
  5.278348   0.958953
  5.279906   0.988656
  5.281463   1.000000
  5.283020   0.991706
  5.284577   0.964759
  5.286135   0.922119
  5.287693   0.868002
  5.289249   0.806948
  5.290807   0.743016
  5.292364   0.679454
  5.293921   0.618542
  5.295479   0.561639
  5.297036   0.509467
  5.298594   0.462253
  5.300151   0.419875
  5.301708   0.382064
  5.303265   0.348449
  5.304823   0.318604
  5.306380   0.292135
  5.307937   0.268641
  5.309494   0.247781
  5.311052   0.229227
  5.312609   0.212705
  5.314166   0.197970
  5.315724   0.184802
  5.317281   0.173018
  5.318838   0.162457
  5.320395   0.152976
  5.321953   0.144457
  5.323510   0.136792
  5.325068   0.129891
  5.326625   0.123678
  5.328182   0.118081
  5.329740   0.113043
  5.331296   0.108513
  5.332854   0.104445
  5.334411   0.100803
   5.33597    0.09755
   5.33753    0.09466
   5.33908    0.09211
   5.34064    0.08988
   5.34220    0.08795
   5.34376    0.08631
   5.34531    0.08494
   5.34687    0.08384
   5.34843    0.08300
   5.34998    0.08241
   5.35154    0.08209
   5.35310    0.08202
   5.35466    0.08222
   5.35621    0.08268
   5.35777    0.08343
   5.35933    0.08446
   5.36089    0.08580
   5.36244    0.08747
   5.36400    0.08950
   5.36556    0.09190
   5.36711    0.09471
   5.36867    0.09798
  5.370229   0.101748
  5.371787   0.106070
  5.373344   0.111011
  5.374901   0.116644
  5.376458   0.123056
  5.378016   0.130348
  5.379573   0.138630
  5.381130   0.148041
  5.382688   0.158726
  5.384245   0.170853
  5.385802   0.184611
  5.387359   0.200195
  5.388917   0.217816
  5.390474   0.237667
  5.392031   0.259904
  5.393589   0.284625
  5.395146   0.311777
  5.396703   0.341121
  5.398261   0.372094
  5.399817   0.403726
  5.401375   0.434599
  5.402933   0.462806
  5.404490   0.486129
  5.406047   0.502372
  5.407605   0.509765
  5.409162   0.507424
  5.410719   0.495577
  5.412276   0.475513
  5.413834   0.449219
  5.415390   0.418966
  5.416948   0.386849
  5.418506   0.354597
  5.420063   0.323453
  5.421620   0.294189
  5.423177   0.267231
  5.424735   0.242741
  5.426292   0.220686
  5.427849   0.200948
  5.429407   0.183349
  5.430964   0.167677
  5.432521   0.153734
  5.434078   0.141316
  5.435636   0.130247
  5.437193   0.120365
  5.438750   0.111520
  5.440308   0.103591
   5.44186    0.09646
   5.44342    0.09003
   5.44498    0.08423
   5.44654    0.07897
   5.44809    0.07419
   5.44965    0.06985
   5.45121    0.06588
   5.45277    0.06225
   5.45432    0.05893
   5.45588    0.05587
   5.45744    0.05306
   5.45900    0.05046
   5.46055    0.04806
   5.46211    0.04584
   5.46367    0.04378
   5.46522    0.04186
   5.46678    0.04008
   5.46834    0.03841
   5.46990    0.03686
   5.47145    0.03540
   5.47301    0.03404
   5.47457    0.03276
   5.47613    0.03155
   5.47768    0.03042
   5.47924    0.02936
   5.48080    0.02835
   5.48235    0.02740
   5.48391    0.02651
   5.48547    0.02566
   5.48703    0.02485
   5.48858    0.02409
   5.49014    0.02336
   5.49170    0.02268
   5.49326    0.02202
   5.49481    0.02140
   5.49637    0.02081
   5.49793    0.02024
   5.49949    0.01970
   5.50104    0.01919
   5.50260    0.01869
   5.50416    0.01822
   5.50571    0.01777
   5.50727    0.01734
   5.50883    0.01693
   5.51039    0.01653
   5.51194    0.01615
   5.51350    0.01578
   5.51506    0.01543
   5.51662    0.01510
   5.51817    0.01477
   5.51973    0.01446
   5.52129    0.01416
   5.52284    0.01387
   5.52440    0.01359
   5.52596    0.01333
   5.52752    0.01307
   5.52907    0.01282
   5.53063    0.01258
   5.53219    0.01235
   5.53375    0.01212
   5.53530    0.01191
   5.53686    0.01170
   5.53842    0.01150
   5.53997    0.01130
   5.54153    0.01111
   5.54309    0.01093
   5.54465    0.01075
   5.54620    0.01058
   5.54776    0.01041
   5.54932    0.01025
   5.55088    0.01010
    5.5524     0.0099
    5.5540     0.0098
    5.5555     0.0097
    5.5571     0.0095
    5.5587     0.0094
    5.5602     0.0093
    5.5618     0.0091
    5.5633     0.0090
    5.5649     0.0089
    5.5664     0.0088
    5.5680     0.0087
    5.5696     0.0086
    5.5711     0.0085
    5.5727     0.0084
    5.5742     0.0083
    5.5758     0.0082
    5.5774     0.0081
    5.5789     0.0080
    5.5805     0.0079
    5.5820     0.0078
    5.5836     0.0077
    5.5851     0.0077
    5.5867     0.0076
    5.5883     0.0075
    5.5898     0.0074
    5.5914     0.0074
    5.5929     0.0073
    5.5945     0.0072
    5.5960     0.0072
    5.5976     0.0071
    5.5992     0.0071
    5.6007     0.0070
    5.6023     0.0069
    5.6038     0.0069
    5.6054     0.0068
    5.6069     0.0068
    5.6085     0.0067
    5.6101     0.0067
    5.6116     0.0066
    5.6132     0.0066
    5.6147     0.0066
    5.6163     0.0065
    5.6178     0.0065
    5.6194     0.0065
    5.6210     0.0064
    5.6225     0.0064
    5.6241     0.0064
    5.6256     0.0063
    5.6272     0.0063
    5.6287     0.0063
    5.6303     0.0062
    5.6319     0.0062
    5.6334     0.0062
    5.6350     0.0062
    5.6365     0.0062
    5.6381     0.0061
    5.6396     0.0061
    5.6412     0.0061
    5.6428     0.0061
    5.6443     0.0061
    5.6459     0.0061
    5.6474     0.0061
    5.6490     0.0061
    5.6505     0.0061
    5.6521     0.0061
    5.6537     0.0061
    5.6552     0.0061
    5.6568     0.0061
    5.6583     0.0061
    5.6599     0.0061
    5.6614     0.0061
    5.6630     0.0061
    5.6646     0.0061
    5.6661     0.0061
    5.6677     0.0061
    5.6692     0.0061
    5.6708     0.0062
    5.6723     0.0062
    5.6739     0.0062
    5.6755     0.0062
    5.6770     0.0063
    5.6786     0.0063
    5.6801     0.0063
    5.6817     0.0064
    5.6832     0.0064
    5.6848     0.0064
    5.6864     0.0065
    5.6879     0.0065
    5.6895     0.0066
    5.6910     0.0066
    5.6926     0.0067
    5.6941     0.0067
    5.6957     0.0068
    5.6973     0.0068
    5.6988     0.0069
    5.7004     0.0069
    5.7019     0.0070
    5.7035     0.0071
    5.7050     0.0072
    5.7066     0.0072
    5.7082     0.0073
    5.7097     0.0074
    5.7113     0.0075
    5.7128     0.0076
    5.7144     0.0077
    5.7159     0.0078
    5.7175     0.0079
    5.7191     0.0081
    5.7206     0.0082
    5.7222     0.0083
    5.7237     0.0084
    5.7253     0.0086
    5.7269     0.0087
    5.7284     0.0089
    5.7300     0.0091
    5.7315     0.0092
    5.7331     0.0094
    5.7346     0.0096
    5.7362     0.0098
   5.73775    0.01001
   5.73931    0.01023
   5.74087    0.01046
   5.74242    0.01070
   5.74398    0.01096
   5.74554    0.01123
   5.74710    0.01152
   5.74865    0.01182
   5.75021    0.01213
   5.75177    0.01247
   5.75332    0.01282
   5.75488    0.01319
   5.75644    0.01358
   5.75800    0.01400
   5.75955    0.01444
   5.76111    0.01491
   5.76267    0.01541
   5.76423    0.01593
   5.76578    0.01649
   5.76734    0.01709
   5.76890    0.01772
   5.77045    0.01840
   5.77201    0.01912
   5.77357    0.01990
   5.77513    0.02072
   5.77668    0.02161
   5.77824    0.02256
   5.77980    0.02358
   5.78136    0.02468
   5.78291    0.02586
   5.78447    0.02714
   5.78603    0.02852
   5.78759    0.03002
   5.78914    0.03164
   5.79070    0.03341
   5.79226    0.03533
   5.79381    0.03743
   5.79537    0.03972
   5.79693    0.04224
   5.79849    0.04500
   5.80004    0.04804
   5.80160    0.05140
   5.80316    0.05511
   5.80472    0.05923
   5.80627    0.06381
   5.80783    0.06890
   5.80939    0.07460
   5.81095    0.08097
   5.81250    0.08811
   5.81406    0.09614
  5.815617   0.105167
  5.817174   0.115326
  5.818731   0.126754
  5.820288   0.139587
  5.821846   0.153958
  5.823403   0.169956
  5.824960   0.187622
  5.826518   0.206880
  5.828075   0.227486
  5.829632   0.248983
  5.831190   0.270602
  5.832747   0.291247
  5.834304   0.309553
  5.835861   0.323983
  5.837419   0.333128
  5.838976   0.335979
  5.840533   0.332207
  5.842091   0.322243
  5.843647   0.307172
  5.845205   0.288436
  5.846763   0.267557
  5.848320   0.245885
  5.849877   0.224454
  5.851435   0.203989
  5.852992   0.184928
  5.854549   0.167472
  5.856106   0.151680
  5.857664   0.137513
  5.859221   0.124861
  5.860778   0.113601
  5.862336   0.103588
   5.86389    0.09469
   5.86545    0.08677
   5.86701    0.07972
   5.86856    0.07343
   5.87012    0.06780
   5.87168    0.06276
   5.87324    0.05824
   5.87479    0.05416
   5.87635    0.05048
   5.87791    0.04715
   5.87947    0.04413
   5.88102    0.04138
   5.88258    0.03888
   5.88414    0.03660
   5.88569    0.03450
   5.88725    0.03258
   5.88881    0.03082
   5.89037    0.02920
   5.89192    0.02770
   5.89348    0.02631
   5.89504    0.02503
   5.89660    0.02384
   5.89815    0.02273
   5.89971    0.02170
   5.90127    0.02074
   5.90283    0.01984
   5.90438    0.01900
   5.90594    0.01822
   5.90750    0.01748
   5.90905    0.01679
   5.91061    0.01614
   5.91217    0.01553
   5.91373    0.01495
   5.91528    0.01441
   5.91684    0.01389
   5.91840    0.01341
   5.91996    0.01295
   5.92151    0.01251
   5.92307    0.01210
   5.92463    0.01171
   5.92618    0.01134
   5.92774    0.01099
   5.92930    0.01065
   5.93086    0.01033
   5.93241    0.01003
    5.9340     0.0097
    5.9355     0.0095
    5.9371     0.0092
    5.9386     0.0089
    5.9402     0.0087
    5.9418     0.0085
    5.9433     0.0082
    5.9449     0.0080
    5.9464     0.0078
    5.9480     0.0076
    5.9495     0.0074
    5.9511     0.0073
    5.9527     0.0071
    5.9542     0.0069
    5.9558     0.0068
    5.9573     0.0066
    5.9589     0.0065
    5.9604     0.0063
    5.9620     0.0062
    5.9636     0.0060
  5.965     0.5916E-2
  5.967     0.5792E-2
  5.968     0.5672E-2
  5.970     0.5556E-2
  5.971     0.5444E-2
  5.973     0.5336E-2
  5.974     0.5231E-2
  5.976     0.5129E-2
  5.978     0.5031E-2
  5.979     0.4936E-2
  5.981     0.4844E-2
  5.982     0.4755E-2
  5.984     0.4668E-2
  5.985     0.4584E-2
  5.987     0.4503E-2
  5.988     0.4424E-2
  5.990     0.4347E-2
  5.992     0.4272E-2
  5.993     0.4200E-2
  5.995     0.4130E-2
  5.996     0.4061E-2
  5.998     0.3995E-2
  5.999     0.3930E-2
  6.001     0.3867E-2
  6.002     0.3806E-2
  6.004     0.3746E-2
  6.006     0.3688E-2
  6.007     0.3632E-2
  6.009     0.3576E-2
  6.010     0.3523E-2
  6.012     0.3470E-2
  6.013     0.3419E-2
  6.015     0.3370E-2
  6.017     0.3321E-2
  6.018     0.3274E-2
  6.020     0.3228E-2
  6.021     0.3182E-2
  6.023     0.3138E-2
  6.024     0.3095E-2
  6.026     0.3053E-2
  6.027     0.3012E-2
  6.029     0.2972E-2
  6.031     0.2933E-2
  6.032     0.2895E-2
  6.034     0.2857E-2
  6.035     0.2821E-2
  6.037     0.2785E-2
  6.038     0.2750E-2
  6.040     0.2715E-2
  6.041     0.2682E-2
  6.043     0.2649E-2
  6.045     0.2617E-2
  6.046     0.2585E-2
  6.048     0.2554E-2
  6.049     0.2524E-2
  6.051     0.2494E-2
  6.052     0.2465E-2
  6.054     0.2437E-2
  6.055     0.2409E-2
  6.057     0.2382E-2
  6.059     0.2355E-2
  6.060     0.2329E-2
  6.062     0.2303E-2
  6.063     0.2277E-2
  6.065     0.2253E-2
  6.066     0.2228E-2
  6.068     0.2204E-2
  6.069     0.2181E-2
  6.071     0.2158E-2
  6.073     0.2135E-2
  6.074     0.2113E-2
  6.076     0.2091E-2
  6.077     0.2070E-2
  6.079     0.2049E-2
  6.080     0.2028E-2
  6.082     0.2008E-2
  6.083     0.1988E-2
  6.085     0.1968E-2
  6.087     0.1949E-2
  6.088     0.1930E-2
  6.090     0.1911E-2
  6.091     0.1893E-2
  6.093     0.1875E-2
  6.094     0.1857E-2
  6.096     0.1840E-2
  6.097     0.1823E-2
  6.099     0.1806E-2
  6.101     0.1789E-2
  6.102     0.1773E-2
  6.104     0.1757E-2
  6.105     0.1741E-2
  6.107     0.1725E-2
  6.108     0.1710E-2
  6.110     0.1695E-2
  6.112     0.1680E-2
  6.113     0.1665E-2
  6.115     0.1651E-2
  6.116     0.1636E-2
  6.118     0.1622E-2
  6.119     0.1609E-2
  6.121     0.1595E-2
  6.122     0.1582E-2
  6.124     0.1568E-2
  6.126     0.1555E-2
  6.127     0.1543E-2
  6.129     0.1530E-2
  6.130     0.1517E-2
  6.132     0.1505E-2
  6.133     0.1493E-2
  6.135     0.1481E-2
  6.136     0.1469E-2
  6.138     0.1458E-2
  6.140     0.1446E-2
  6.141     0.1435E-2
  6.143     0.1424E-2
  6.144     0.1413E-2
  6.146     0.1402E-2
  6.147     0.1391E-2
  6.149     0.1381E-2
  6.150     0.1370E-2
  6.152     0.1360E-2
  6.154     0.1350E-2
  6.155     0.1340E-2
  6.157     0.1330E-2
  6.158     0.1320E-2
  6.160     0.1310E-2
  6.161     0.1301E-2
  6.163     0.1291E-2
  6.164     0.1282E-2
  6.166     0.1273E-2
  6.168     0.1264E-2
  6.169     0.1255E-2
  6.171     0.1246E-2
  6.172     0.1237E-2
  6.174     0.1229E-2
  6.175     0.1220E-2
  6.177     0.1212E-2
  6.178     0.1203E-2
  6.180     0.1195E-2
  6.182     0.1187E-2
  6.183     0.1179E-2
  6.185     0.1171E-2
  6.186     0.1163E-2
  6.188     0.1155E-2
  6.189     0.1148E-2
  6.191     0.1140E-2
  6.192     0.1133E-2
  6.194     0.1125E-2
  6.196     0.1118E-2
  6.197     0.1111E-2
  6.199     0.1103E-2
  6.200     0.1096E-2
  6.202     0.1089E-2
  6.203     0.1082E-2
  6.205     0.1076E-2
  6.206     0.1069E-2
  6.208     0.1062E-2
  6.210     0.1055E-2
  6.211     0.1049E-2
  6.213     0.1042E-2
  6.214     0.1036E-2
  6.216     0.1030E-2
  6.217     0.1023E-2
  6.219     0.1017E-2
  6.221     0.1011E-2
  6.222     0.1005E-2
  6.224     0.9987E-3
  6.225     0.9927E-3
  6.227     0.9868E-3
  6.228     0.9809E-3
  6.230     0.9751E-3
  6.231     0.9694E-3
  6.233     0.9637E-3
  6.235     0.9581E-3
  6.236     0.9525E-3
  6.238     0.9470E-3
  6.239     0.9416E-3
  6.241     0.9362E-3
  6.242     0.9308E-3
  6.244     0.9255E-3
  6.245     0.9203E-3
  6.247     0.9151E-3
  6.249     0.9099E-3
  6.250     0.9048E-3
  6.252     0.8998E-3
  6.253     0.8948E-3
  6.255     0.8898E-3
  6.256     0.8849E-3
  6.258     0.8800E-3
  6.259     0.8752E-3
  6.261     0.8705E-3
  6.263     0.8657E-3
  6.264     0.8610E-3
  6.266     0.8564E-3
  6.267     0.8518E-3
  6.269     0.8472E-3
  6.270     0.8427E-3
  6.272     0.8383E-3
  6.273     0.8338E-3
  6.275     0.8294E-3
  6.277     0.8251E-3
  6.278     0.8207E-3
  6.280     0.8165E-3
  6.281     0.8122E-3
  6.283     0.8080E-3
  6.284     0.8039E-3
  6.286     0.7997E-3
  6.287     0.7956E-3
  6.289     0.7916E-3
  6.291     0.7875E-3
  6.292     0.7836E-3
  6.294     0.7796E-3
  6.295     0.7757E-3
  6.297     0.7718E-3
  6.298     0.7679E-3
  6.300     0.7641E-3
  6.301     0.7603E-3
  6.303     0.7565E-3
  6.305     0.7528E-3
  6.306     0.7491E-3
  6.308     0.7454E-3
  6.309     0.7418E-3
  6.311     0.7382E-3
  6.312     0.7346E-3
  6.314     0.7311E-3
  6.316     0.7276E-3
  6.317     0.7241E-3
  6.319     0.7206E-3
  6.320     0.7172E-3
  6.322     0.7138E-3
  6.323     0.7104E-3
  6.325     0.7070E-3
  6.326     0.7037E-3
  6.328     0.7004E-3
  6.330     0.6971E-3
  6.331     0.6939E-3
  6.333     0.6906E-3
  6.334     0.6874E-3
  6.336     0.6843E-3
  6.337     0.6811E-3
# 
# 10/20/2016 at 12:04 YPP @ anomaly [start]
# 10/20/2016 at 12:04               [end]
#
# .-Input file : yambo.in
# | excitons                     # [R] Excitons
# | amplitude                    # [R] Amplitude
# | BoseTemp= 0.000000     eV    # Bosonic Temperature
# | States= "1 - 4"              # Index of the BS state(s)
# | #DipWeight                   #  Weight the contribution to the exciton WFs with the dipoles
# | Degen_Step=   0.0100   eV    # Maximum energy separation of two degenerate states
