#                                                           
#  __  __   ________   ___ __ __    _______   ______        
# /_/\/_/\ /_______/\ /__//_//_/\ /_______/\ /_____/\       
# \ \ \ \ \\::: _  \ \\::\| \| \ \\::: _  \ \\:::_ \ \      
#  \:\_\ \ \\::(_)  \ \\:.      \ \\::(_)  \/_\:\ \ \ \     
#   \::::_\/ \:: __  \ \\:.\-/\  \ \\::  _  \ \\:\ \ \ \    
#     \::\ \  \:.\ \  \ \\. \  \  \ \\::(_)  \ \\:\_\ \ \   
#      \__\/   \__\/\__\/ \__\/ \__\/ \_______\/ \_____\/   
#                                                           
#                                                           
#        Version 4.3.0 Revision 15186 Hash adaf3b3          
#                  MPI+SLK+OpenMP Build                     
#                http://www.yambo-code.org                  
#
# Absorption @ Q(16) [iku] :-0.1250001  0.5000000  0.0000000
#
#
# BZ Energy DbGd points: 1000
#
# - Energies      are  Analyt. E
# - Wavefunctions are Slater exchange(X)+Perdew & Zunger(C)
#
# - The Green`s function is T-ordered -
#
#    E/ev[1]       EPS-Im[2]     EPS-Re[3]
#
    10.000       0.66348E-4     1.0077   
    10.030       0.66734E-4     1.0077   
    10.060       0.67124E-4     1.0078   
    10.090       0.67518E-4     1.0078   
    10.120       0.67917E-4     1.0078   
    10.150       0.68320E-4     1.0078   
    10.180       0.68728E-4     1.0078   
    10.210       0.69140E-4     1.0078   
    10.240       0.69556E-4     1.0079   
    10.271       0.69978E-4     1.0079   
    10.301       0.70404E-4     1.0079   
    10.331       0.70835E-4     1.0079   
    10.361       0.71271E-4     1.0079   
    10.391       0.71712E-4     1.0079   
    10.421       0.72158E-4     1.0080   
    10.451       0.72609E-4     1.0080   
    10.481       0.73065E-4     1.0080   
    10.511       0.73527E-4     1.0080   
    10.541       0.73994E-4     1.0080   
    10.571       0.74467E-4     1.0081   
    10.601       0.74945E-4     1.0081   
    10.631       0.75428E-4     1.0081   
    10.661       0.75918E-4     1.0081   
    10.691       0.76413E-4     1.0081   
    10.721       0.76914E-4     1.0081   
    10.752       0.77421E-4     1.0082   
    10.782       0.77935E-4     1.0082   
    10.812       0.78454E-4     1.0082   
    10.842       0.78980E-4     1.0082   
    10.872       0.79512E-4     1.0082   
    10.902       0.80051E-4     1.0083   
    10.932       0.80596E-4     1.0083   
    10.962       0.81149E-4     1.0083   
    10.992       0.81708E-4     1.0083   
    11.022       0.82274E-4     1.0084   
    11.052       0.82847E-4     1.0084   
    11.082       0.83427E-4     1.0084   
    11.112       0.84015E-4     1.0084   
    11.142       0.84610E-4     1.0084   
    11.172       0.85213E-4     1.0085   
    11.202       0.85823E-4     1.0085   
    11.232       0.86442E-4     1.0085   
    11.263       0.87068E-4     1.0085   
    11.293       0.87703E-4     1.0085   
    11.323       0.88346E-4     1.0086   
    11.353       0.88997E-4     1.0086   
    11.383       0.89657E-4     1.0086   
    11.413       0.90326E-4     1.0086   
    11.443       0.91004E-4     1.0087   
    11.473       0.91690E-4     1.0087   
    11.503       0.92386E-4     1.0087   
    11.533       0.93092E-4     1.0087   
    11.563       0.93807E-4     1.0088   
    11.593       0.94532E-4     1.0088   
    11.623       0.95267E-4     1.0088   
    11.653       0.96012E-4     1.0088   
    11.683       0.96768E-4     1.0089   
    11.713       0.97534E-4     1.0089   
    11.743       0.98311E-4     1.0089   
    11.774       0.99099E-4     1.0089   
    11.804       0.99898E-4     1.0090   
    11.834       0.10071E-3     1.0090   
    11.864       0.10153E-3     1.0090   
    11.894       0.10237E-3     1.0090   
    11.924       0.10321E-3     1.0091   
    11.954       0.10407E-3     1.0091   
    11.984       0.10494E-3     1.0091   
    12.014       0.10583E-3     1.0092   
    12.044       0.10672E-3     1.0092   
    12.074       0.10764E-3     1.0092   
    12.104       0.10856E-3     1.0092   
    12.134       0.10950E-3     1.0093   
    12.164       0.11045E-3     1.0093   
    12.194       0.11142E-3     1.0093   
    12.224       0.11241E-3     1.0094   
    12.255       0.11340E-3     1.0094   
    12.285       0.11442E-3     1.0094   
    12.315       0.11545E-3     1.0095   
    12.345       0.11650E-3     1.0095   
    12.375       0.11756E-3     1.0095   
    12.405       0.11864E-3     1.0096   
    12.435       0.11974E-3     1.0096   
    12.465       0.12086E-3     1.0096   
    12.495       0.12199E-3     1.0097   
    12.525       0.12314E-3     1.0097   
    12.555       0.12432E-3     1.0097   
    12.585       0.12551E-3     1.0098   
    12.615       0.12672E-3     1.0098   
    12.645       0.12796E-3     1.0098   
    12.675       0.12921E-3     1.0099   
    12.705       0.13049E-3     1.0099   
    12.735       0.13179E-3     1.0099   
    12.766       0.13311E-3     1.0100   
    12.796       0.13446E-3     1.0100   
    12.826       0.13583E-3     1.0100   
    12.856       0.13722E-3     1.0101   
    12.886       0.13864E-3     1.0101   
    12.916       0.14009E-3     1.0102   
    12.946       0.14156E-3     1.0102   
    12.976       0.14306E-3     1.0102   
    13.006       0.14459E-3     1.0103   
    13.036       0.14615E-3     1.0103   
    13.066       0.14773E-3     1.0104   
    13.096       0.14935E-3     1.0104   
    13.126       0.15100E-3     1.0104   
    13.156       0.15269E-3     1.0105   
    13.186       0.15440E-3     1.0105   
    13.216       0.15615E-3     1.0106   
    13.246       0.15794E-3     1.0106   
    13.277       0.15976E-3     1.0107   
    13.307       0.16162E-3     1.0107   
    13.337       0.16352E-3     1.0107   
    13.367       0.16546E-3     1.0108   
    13.397       0.16744E-3     1.0108   
    13.427       0.16947E-3     1.0109   
    13.457       0.17154E-3     1.0109   
    13.487       0.17365E-3     1.0110   
    13.517       0.17581E-3     1.0110   
    13.547       0.17802E-3     1.0111   
    13.577       0.18028E-3     1.0111   
    13.607       0.18259E-3     1.0112   
    13.637       0.18496E-3     1.0112   
    13.667       0.18738E-3     1.0113   
    13.697       0.18986E-3     1.0113   
    13.727       0.19240E-3     1.0114   
    13.758       0.19501E-3     1.0115   
    13.788       0.19767E-3     1.0115   
    13.818       0.20041E-3     1.0116   
    13.848       0.20322E-3     1.0116   
    13.878       0.20610E-3     1.0117   
    13.908       0.20905E-3     1.0117   
    13.938       0.21209E-3     1.0118   
    13.968       0.21521E-3     1.0119   
    13.998       0.21841E-3     1.0119   
    14.028       0.22170E-3     1.0120   
    14.058       0.22509E-3     1.0121   
    14.088       0.22858E-3     1.0121   
    14.118       0.23217E-3     1.0122   
    14.148       0.23587E-3     1.0123   
    14.178       0.23969E-3     1.0123   
    14.208       0.24363E-3     1.0124   
    14.238       0.24769E-3     1.0125   
    14.269       0.25189E-3     1.0125   
    14.299       0.25622E-3     1.0126   
    14.329       0.26071E-3     1.0127   
    14.359       0.26536E-3     1.0128   
    14.389       0.27018E-3     1.0128   
    14.419       0.27517E-3     1.0129   
    14.449       0.28037E-3     1.0130   
    14.479       0.28576E-3     1.0131   
    14.509       0.29138E-3     1.0132   
    14.539       0.29724E-3     1.0132   
    14.569       0.30337E-3     1.0133   
    14.599       0.30977E-3     1.0134   
    14.629       0.31649E-3     1.0135   
    14.659       0.32355E-3     1.0136   
    14.689       0.33098E-3     1.0137   
    14.719       0.33884E-3     1.0138   
    14.749       0.34718E-3     1.0139   
    14.780       0.35607E-3     1.0140   
    14.810       0.36558E-3     1.0141   
    14.840       0.37583E-3     1.0142   
    14.870       0.38696E-3     1.0143   
    14.900       0.39916E-3     1.0144   
    14.930       0.41268E-3     1.0146   
    14.960       0.42788E-3     1.0147   
    14.990       0.44530E-3     1.0148   
    15.020       0.46570E-3     1.0149   
    15.050       0.49016E-3     1.0151   
    15.080       0.52018E-3     1.0152   
    15.110       0.55733E-3     1.0153   
    15.140       0.60208E-3     1.0155   
    15.170       0.65093E-3     1.0156   
    15.200       0.69533E-3     1.0157   
    15.230       0.72977E-3     1.0158   
    15.261       0.75823E-3     1.0160   
    15.291       0.78840E-3     1.0161   
    15.321       0.82347E-3     1.0163   
    15.351       0.85687E-3     1.0164   
    15.381       0.88202E-3     1.0165   
    15.411       0.90254E-3     1.0167   
    15.441       0.92619E-3     1.0169   
    15.471       0.96019E-3     1.0171   
    15.501       0.10101E-2     1.0173   
    15.531       0.10784E-2     1.0175   
    15.561       0.11684E-2     1.0177   
    15.591       0.12796E-2     1.0179   
    15.621       0.13990E-2     1.0181   
    15.651       0.15106E-2     1.0183   
    15.681       0.16129E-2     1.0185   
    15.711       0.17219E-2     1.0187   
    15.741       0.18566E-2     1.0189   
    15.772       0.20218E-2     1.0192   
    15.802       0.22084E-2     1.0194   
    15.832       0.24008E-2     1.0195   
    15.862       0.25918E-2     1.0197   
    15.892       0.27861E-2     1.0199   
    15.922       0.29871E-2     1.0200   
    15.952       0.31987E-2     1.0202   
    15.982       0.34280E-2     1.0203   
    16.012       0.36687E-2     1.0204   
    16.042       0.38764E-2     1.0205   
    16.072       0.40126E-2     1.0205   
    16.102       0.41041E-2     1.0206   
    16.132       0.41894E-2     1.0207   
    16.162       0.42621E-2     1.0208   
    16.192       0.43129E-2     1.0209   
    16.222       0.43724E-2     1.0212   
    16.253       0.44743E-2     1.0214   
    16.283       0.46297E-2     1.0217   
    16.313       0.48401E-2     1.0220   
    16.343       0.50853E-2     1.0223   
    16.373       0.53486E-2     1.0226   
    16.403       0.56348E-2     1.0228   
    16.433       0.59406E-2     1.0231   
    16.463       0.62774E-2     1.0234   
    16.493       0.66778E-2     1.0236   
    16.523       0.71626E-2     1.0238   
    16.553       0.76830E-2     1.0239   
    16.583       0.81250E-2     1.0239   
    16.613       0.84525E-2     1.0239   
    16.643       0.87178E-2     1.0239   
    16.673       0.89836E-2     1.0240   
    16.703       0.93058E-2     1.0241   
    16.733       0.97194E-2     1.0243   
    16.764       0.10200E-1     1.0244   
    16.794       0.10692E-1     1.0244   
    16.824       0.11168E-1     1.0243   
    16.854       0.11572E-1     1.0241   
    16.884       0.11828E-1     1.0239   
    16.914       0.11940E-1     1.0237   
    16.944       0.11998E-1     1.0237   
    16.974       0.12066E-1     1.0238   
    17.004       0.12227E-1     1.0241   
    17.034       0.12604E-1     1.0245   
    17.064       0.13209E-1     1.0248   
    17.094       0.13896E-1     1.0249   
    17.124       0.14508E-1     1.0248   
    17.154       0.15068E-1     1.0247   
    17.184       0.15682E-1     1.0246   
    17.214       0.16352E-1     1.0243   
    17.244       0.16980E-1     1.0239   
    17.274548      0.017398      1.023226
    17.304609      0.017493      1.022538
    17.335       0.17300E-1     1.0220   
    17.365       0.16945E-1     1.0218   
    17.395       0.16554E-1     1.0218   
    17.425       0.16255E-1     1.0222   
    17.455       0.16195E-1     1.0227   
    17.485       0.16431E-1     1.0234   
    17.515       0.16980E-1     1.0241   
    17.545090      0.017872      1.024695
    17.575150      0.018993      1.024907
    17.605209      0.020058      1.024737
    17.635271      0.020917      1.024378
    17.665331      0.021591      1.023973
    17.695391      0.022120      1.023627
    17.725449      0.022636      1.023421
    17.755510      0.023299      1.023279
    17.785570      0.024148      1.023043
    17.815632      0.025117      1.022532
    17.845690      0.025935      1.021646
    17.875750      0.026316      1.020622
    17.905811      0.026346      1.019867
    17.935871      0.026431      1.019483
    17.965933      0.026822      1.019194
    17.995991      0.027434      1.018659
    18.026051      0.027907      1.017792
    18.056110      0.028058      1.016903
    18.086172      0.028111      1.016193
    18.116232      0.028243      1.015513
    18.146292      0.028353      1.014700
    18.176352      0.028281      1.013793
    18.206411      0.027977      1.012911
    18.236473      0.027439      1.012164
    18.266533      0.026741      1.011694
    18.296593      0.026053      1.011532
    18.326653      0.025460      1.011631
    18.356712      0.025072      1.012000
    18.386772      0.025086      1.012512
    18.416834      0.025538      1.012856
    18.446892      0.026200      1.012771
    18.476954      0.026703      1.012254
    18.507013      0.026818      1.011579
    18.537073      0.026596      1.011068
    18.567135      0.026267      1.010858
    18.597193      0.026015      1.010921
    18.627254      0.025963      1.011197
    18.657312      0.026255      1.011586
    18.687374      0.026992      1.011837
    18.717434      0.028036      1.011608
    18.747496      0.028974      1.010758
    18.777555      0.029423      1.009500
    18.807613      0.029237      1.008221
    18.837675      0.028549      1.007332
    18.867735      0.027770      1.007040
    18.897797      0.027293      1.007154
    18.927855      0.027170      1.007346
    18.957914      0.027274      1.007468
    18.987974      0.027518      1.007512
    19.018036      0.027925      1.007488
    19.048096      0.028545      1.007254
    19.078156      0.029202      1.006596
    19.108215      0.029518      1.005556
    19.138275      0.029305      1.004551
    19.168337      0.028868      1.003937
    19.198397      0.028603      1.003575
    19.228456      0.028474      1.003125
    19.258514      0.028199      1.002595
    19.288576      0.027761      1.002254
    19.318636      0.027435      1.002203
    19.348698      0.027445      1.002201
    19.378757      0.027626      1.001964
    19.408815      0.027775      1.001577
    19.438877      0.027965      1.001072
    19.468937      0.028102      1.000297
    19.498999      0.027926      0.999322
    19.529057      0.027357      0.998429
    19.559116      0.026555      0.997859
    19.589176      0.025823      0.997642
    19.619238      0.025336      0.997547
    19.649298      0.024992      0.997363
    19.679358      0.024652      0.997086
    19.709417      0.024260      0.996731
    19.739477      0.023727      0.996354
    19.769539      0.023080      0.996086
    19.799599      0.022427      0.995907
    19.829659      0.021698      0.995749
    19.859718      0.020820      0.995757
    19.889778      0.019966      0.996068
    19.920       0.19315E-1    0.99656   
    19.950       0.18816E-1    0.99708   
    19.980       0.18417E-1    0.99768   
    20.010       0.18175E-1    0.99837   
    20.040       0.18164E-1    0.99910   
    20.070       0.18439E-1    0.99975   
    20.100       0.18929E-1     1.0002   
    20.130       0.19463E-1     1.0003   
    20.160       0.19944E-1     1.0001   
    20.190380      0.020208      0.999676
    20.220       0.20035E-1    0.99917   
    20.251       0.19524E-1    0.99898   
    20.281       0.19025E-1    0.99921   
    20.311       0.18780E-1    0.99970   
    20.341       0.18859E-1     1.0002   
    20.371       0.19166E-1     1.0006   
    20.401       0.19597E-1     1.0009   
    20.431       0.20201E-1     1.0010   
    20.460920      0.020864      1.000794
    20.490980      0.021273      1.000204
    20.521042      0.021287      0.999546
    20.551102      0.020969      0.999067
    20.581       0.20508E-1    0.99895   
    20.611       0.20216E-1    0.99920   
    20.641       0.20339E-1    0.99956   
    20.671341      0.020805      0.999628
    20.701403      0.021220      0.999261
    20.731462      0.021277      0.998722
    20.761522      0.021081      0.998335
    20.791582      0.020844      0.998091
    20.822       0.20540E-1    0.99793   
    20.852       0.20186E-1    0.99797   
    20.882       0.19995E-1    0.99824   
    20.912       0.20105E-1    0.99855   
    20.942       0.20419E-1    0.99865   
    20.972       0.20712E-1    0.99851   
    21.002       0.20882E-1    0.99828   
    21.032       0.20962E-1    0.99805   
    21.062       0.20989E-1    0.99785   
    21.092       0.21029E-1    0.99770   
    21.122244      0.021158      0.997533
    21.152304      0.021294      0.997212
    21.182365      0.021267      0.996798
    21.212       0.21097E-1    0.99647   
    21.242       0.20931E-1    0.99624   
    21.273       0.20781E-1    0.99600   
    21.303       0.20536E-1    0.99574   
    21.333       0.20192E-1    0.99558   
    21.363       0.19806E-1    0.99558   
    21.393       0.19455E-1    0.99579   
    21.423       0.19332E-1    0.99621   
    21.453       0.19580E-1    0.99662   
    21.483       0.20124E-1    0.99677   
    21.513       0.20711E-1    0.99651   
    21.543       0.21053E-1    0.99592   
    21.573       0.21057E-1    0.99529   
    21.603       0.20843E-1    0.99479   
    21.633       0.20531E-1    0.99445   
    21.663       0.20206E-1    0.99429   
    21.693       0.20008E-1    0.99429   
    21.723       0.20000E-1    0.99426   
    21.754       0.20056E-1    0.99406   
    21.784       0.20028E-1    0.99375   
    21.814       0.19889E-1    0.99342   
    21.844       0.19640E-1    0.99313   
    21.874       0.19335E-1    0.99298   
    21.904       0.19141E-1    0.99294   
    21.934       0.19082E-1    0.99282   
    21.964       0.18989E-1    0.99256   
    21.994       0.18793E-1    0.99227   
    22.024       0.18513E-1    0.99199   
    22.054       0.18130E-1    0.99174   
    22.084       0.17674E-1    0.99161   
    22.114       0.17231E-1    0.99160   
    22.144       0.16855E-1    0.99165   
    22.174       0.16513E-1    0.99170   
    22.204       0.16125E-1    0.99176   
    22.234       0.15680E-1    0.99192   
    22.265       0.15265E-1    0.99225   
    22.295       0.14989E-1    0.99274   
    22.325       0.14938E-1    0.99331   
    22.355       0.15155E-1    0.99382   
    22.385       0.15578E-1    0.99411   
    22.415       0.15994E-1    0.99409   
    22.445       0.16206E-1    0.99390   
    22.475       0.16227E-1    0.99376   
    22.505       0.16230E-1    0.99378   
    22.535       0.16361E-1    0.99386   
    22.565       0.16643E-1    0.99384   
    22.595       0.16950E-1    0.99362   
    22.625       0.17145E-1    0.99324   
    22.655       0.17181E-1    0.99277   
    22.685       0.17014E-1    0.99229   
    22.715       0.16636E-1    0.99192   
    22.745       0.16187E-1    0.99180   
    22.776       0.15837E-1    0.99186   
    22.806       0.15632E-1    0.99198   
    22.836       0.15530E-1    0.99206   
    22.866       0.15462E-1    0.99208   
    22.896       0.15361E-1    0.99206   
    22.926       0.15218E-1    0.99206   
    22.956       0.15070E-1    0.99212   
    22.986       0.14950E-1    0.99225   
    23.016       0.14909E-1    0.99245   
    23.046       0.15036E-1    0.99270   
    23.076       0.15416E-1    0.99284   
    23.106       0.15931E-1    0.99263   
    23.136       0.16253E-1    0.99205   
    23.166       0.16172E-1    0.99134   
    23.196       0.15767E-1    0.99080   
    23.226       0.15290E-1    0.99052   
    23.257       0.14863E-1    0.99036   
    23.287       0.14404E-1    0.99022   
    23.317       0.13876E-1    0.99019   
    23.347       0.13347E-1    0.99031   
    23.377       0.12861E-1    0.99057   
    23.407       0.12468E-1    0.99098   
    23.437       0.12235E-1    0.99149   
    23.467       0.12223E-1    0.99201   
    23.497       0.12397E-1    0.99242   
    23.527       0.12633E-1    0.99265   
    23.557       0.12796E-1    0.99275   
    23.587       0.12858E-1    0.99286   
    23.617       0.12937E-1    0.99304   
    23.647       0.13099E-1    0.99324   
    23.677       0.13310E-1    0.99340   
    23.707       0.13576E-1    0.99354   
    23.737       0.13955E-1    0.99363   
    23.768       0.14408E-1    0.99354   
    23.798       0.14768E-1    0.99326   
    23.828       0.14985E-1    0.99291   
    23.858       0.15098E-1    0.99253   
    23.888       0.15036E-1    0.99213   
    23.918       0.14800E-1    0.99191   
    23.948       0.14619E-1    0.99194   
    23.978       0.14687E-1    0.99206   
    24.008       0.14927E-1    0.99201   
    24.038       0.15126E-1    0.99178   
    24.068       0.15238E-1    0.99150   
    24.098       0.15287E-1    0.99117   
    24.128       0.15235E-1    0.99085   
    24.158       0.15134E-1    0.99057   
    24.188       0.15009E-1    0.99032   
    24.218       0.14840E-1    0.99010   
    24.248       0.14674E-1    0.98997   
    24.279       0.14585E-1    0.98985   
    24.309       0.14527E-1    0.98967   
    24.339       0.14410E-1    0.98944   
    24.369       0.14229E-1    0.98923   
    24.399       0.13996E-1    0.98904   
    24.429       0.13708E-1    0.98893   
    24.459       0.13425E-1    0.98894   
    24.489       0.13248E-1    0.98904   
    24.519       0.13196E-1    0.98912   
    24.549       0.13210E-1    0.98914   
    24.579       0.13248E-1    0.98910   
    24.609       0.13287E-1    0.98901   
    24.639       0.13352E-1    0.98889   
    24.669       0.13445E-1    0.98866   
    24.699       0.13441E-1    0.98829   
    24.729       0.13268E-1    0.98790   
    24.760       0.12967E-1    0.98759   
    24.790       0.12595E-1    0.98740   
    24.820       0.12264E-1    0.98736   
    24.850       0.12074E-1    0.98736   
    24.880       0.11968E-1    0.98725   
    24.910       0.11794E-1    0.98703   
    24.940       0.11482E-1    0.98679   
    24.970       0.11063E-1    0.98664   
    25.000       0.10621E-1    0.98661   
# 
# 01/08/2018 at 17:17 YAMBO @ polluce [start]
# 01/08/2018 at 17:18                 [end]
#  
# Timing   [Min/Max/Average]: 01m-29s/01m-29s/01m-29s
#
# .-Input file : yambo.in
# | optics                         # [R OPT] Optics
# | chi                            # [R CHI] Dyson equation for Chi.
# | ElecTemp=0.1723E-4     eV      # Electronic Temperature
# | BoseTemp=0.1723E-4     eV      # Bosonic Temperature
# | FFTGvecs= 1807         RL      # [FFT] Plane-waves
# | X_Threads= 1                   # [OPENMP/X] Number of threads for response functions
# | DIP_Threads= 1                 # [OPENMP/X] Number of threads for dipoles
# | Chimod= "IP"                   # [X] IP/Hartree/ALDA/LRC/BSfxc
# | NGsBlkXd= 1            RL      # [Xd] Response block size
# | % QpntsRXd
# |   1 | 19 |                     # [Xd] Transferred momenta
# | %
# | % BndsRnXd
# |   2 |  7 |                     # [Xd] Polarization function bands
# | %
# | % EnRngeXd
# |  10.00000 | 25.00000 | eV      # [Xd] Energy range
# | %
# | % DmRngeXd
# |   0.10000 |  0.10000 | eV      # [Xd] Damping range
# | %
# | ETStpsXd=  500                 # [Xd] Total Energy steps
# | % LongDrXd
# | 0.1000E-4 | 0.000    | 0.000    |        # [Xd] [cc] Electric Field
# | %
# | % XfnQP_E
# |  5.350000 | 1.000000 | 1.000000 |        # [EXTQP Xd] E parameters  (c/v) eV|adim|adim
# | %
