#                                                           
#  __  __   ________   ___ __ __    _______   ______        
# /_/\/_/\ /_______/\ /__//_//_/\ /_______/\ /_____/\       
# \ \ \ \ \\::: _  \ \\::\| \| \ \\::: _  \ \\:::_ \ \      
#  \:\_\ \ \\::(_)  \ \\:.      \ \\::(_)  \/_\:\ \ \ \     
#   \::::_\/ \:: __  \ \\:.\-/\  \ \\::  _  \ \\:\ \ \ \    
#     \::\ \  \:.\ \  \ \\. \  \  \ \\::(_)  \ \\:\_\ \ \   
#      \__\/   \__\/\__\/ \__\/ \__\/ \_______\/ \_____\/   
#                                                           
#                                                           
#        Version 4.3.0 Revision 15186 Hash adaf3b3          
#                  MPI+SLK+OpenMP Build                     
#                http://www.yambo-code.org                  
#
# Absorption @ Q(19) [iku] : 0.0000000 -0.5000000  0.0000000
#
#
# BZ Energy DbGd points: 1000
#
# - Energies      are  Analyt. E
# - Wavefunctions are Slater exchange(X)+Perdew & Zunger(C)
#
# - The Green`s function is T-ordered -
#
#    E/ev[1]       EPS-Im[2]     EPS-Re[3]
#
    10.000       0.80436E-4     1.0093   
    10.030       0.80906E-4     1.0093   
    10.060       0.81380E-4     1.0094   
    10.090       0.81860E-4     1.0094   
    10.120       0.82345E-4     1.0094   
    10.150       0.82835E-4     1.0094   
    10.180       0.83331E-4     1.0094   
    10.210       0.83832E-4     1.0095   
    10.240       0.84339E-4     1.0095   
    10.271       0.84852E-4     1.0095   
    10.301       0.85371E-4     1.0095   
    10.331       0.85895E-4     1.0095   
    10.361       0.86426E-4     1.0096   
    10.391       0.86962E-4     1.0096   
    10.421       0.87505E-4     1.0096   
    10.451       0.88053E-4     1.0096   
    10.481       0.88609E-4     1.0097   
    10.511       0.89170E-4     1.0097   
    10.541       0.89739E-4     1.0097   
    10.571       0.90313E-4     1.0097   
    10.601       0.90895E-4     1.0097   
    10.631       0.91483E-4     1.0098   
    10.661       0.92079E-4     1.0098   
    10.691       0.92682E-4     1.0098   
    10.721       0.93291E-4     1.0098   
    10.752       0.93908E-4     1.0099   
    10.782       0.94533E-4     1.0099   
    10.812       0.95165E-4     1.0099   
    10.842       0.95805E-4     1.0099   
    10.872       0.96453E-4     1.0100   
    10.902       0.97108E-4     1.0100   
    10.932       0.97772E-4     1.0100   
    10.962       0.98443E-4     1.0100   
    10.992       0.99124E-4     1.0101   
    11.022       0.99812E-4     1.0101   
    11.052       0.10051E-3     1.0101   
    11.082       0.10122E-3     1.0101   
    11.112       0.10193E-3     1.0102   
    11.142       0.10265E-3     1.0102   
    11.172       0.10339E-3     1.0102   
    11.202       0.10413E-3     1.0102   
    11.232       0.10488E-3     1.0103   
    11.263       0.10565E-3     1.0103   
    11.293       0.10642E-3     1.0103   
    11.323       0.10720E-3     1.0104   
    11.353       0.10799E-3     1.0104   
    11.383       0.10880E-3     1.0104   
    11.413       0.10961E-3     1.0104   
    11.443       0.11043E-3     1.0105   
    11.473       0.11127E-3     1.0105   
    11.503       0.11212E-3     1.0105   
    11.533       0.11297E-3     1.0106   
    11.563       0.11384E-3     1.0106   
    11.593       0.11473E-3     1.0106   
    11.623       0.11562E-3     1.0106   
    11.653       0.11653E-3     1.0107   
    11.683       0.11745E-3     1.0107   
    11.713       0.11838E-3     1.0107   
    11.743       0.11932E-3     1.0108   
    11.774       0.12028E-3     1.0108   
    11.804       0.12125E-3     1.0108   
    11.834       0.12224E-3     1.0109   
    11.864       0.12324E-3     1.0109   
    11.894       0.12425E-3     1.0109   
    11.924       0.12528E-3     1.0110   
    11.954       0.12633E-3     1.0110   
    11.984       0.12739E-3     1.0110   
    12.014       0.12846E-3     1.0111   
    12.044       0.12955E-3     1.0111   
    12.074       0.13066E-3     1.0111   
    12.104       0.13179E-3     1.0112   
    12.134       0.13293E-3     1.0112   
    12.164       0.13409E-3     1.0112   
    12.194       0.13527E-3     1.0113   
    12.224       0.13646E-3     1.0113   
    12.255       0.13767E-3     1.0114   
    12.285       0.13891E-3     1.0114   
    12.315       0.14016E-3     1.0114   
    12.345       0.14143E-3     1.0115   
    12.375       0.14273E-3     1.0115   
    12.405       0.14404E-3     1.0115   
    12.435       0.14537E-3     1.0116   
    12.465       0.14673E-3     1.0116   
    12.495       0.14811E-3     1.0117   
    12.525       0.14951E-3     1.0117   
    12.555       0.15094E-3     1.0117   
    12.585       0.15238E-3     1.0118   
    12.615       0.15386E-3     1.0118   
    12.645       0.15536E-3     1.0119   
    12.675       0.15688E-3     1.0119   
    12.705       0.15843E-3     1.0120   
    12.735       0.16001E-3     1.0120   
    12.766       0.16161E-3     1.0120   
    12.796       0.16325E-3     1.0121   
    12.826       0.16491E-3     1.0121   
    12.856       0.16660E-3     1.0122   
    12.886       0.16832E-3     1.0122   
    12.916       0.17008E-3     1.0123   
    12.946       0.17186E-3     1.0123   
    12.976       0.17369E-3     1.0124   
    13.006       0.17554E-3     1.0124   
    13.036       0.17743E-3     1.0125   
    13.066       0.17935E-3     1.0125   
    13.096       0.18131E-3     1.0126   
    13.126       0.18331E-3     1.0126   
    13.156       0.18535E-3     1.0127   
    13.186       0.18743E-3     1.0127   
    13.216       0.18955E-3     1.0128   
    13.246       0.19171E-3     1.0128   
    13.277       0.19392E-3     1.0129   
    13.307       0.19617E-3     1.0129   
    13.337       0.19847E-3     1.0130   
    13.367       0.20081E-3     1.0131   
    13.397       0.20321E-3     1.0131   
    13.427       0.20565E-3     1.0132   
    13.457       0.20815E-3     1.0132   
    13.487       0.21071E-3     1.0133   
    13.517       0.21331E-3     1.0133   
    13.547       0.21598E-3     1.0134   
    13.577       0.21871E-3     1.0135   
    13.607       0.22149E-3     1.0135   
    13.637       0.22435E-3     1.0136   
    13.667       0.22726E-3     1.0137   
    13.697       0.23025E-3     1.0137   
    13.727       0.23331E-3     1.0138   
    13.758       0.23644E-3     1.0139   
    13.788       0.23964E-3     1.0139   
    13.818       0.24293E-3     1.0140   
    13.848       0.24629E-3     1.0141   
    13.878       0.24975E-3     1.0141   
    13.908       0.25329E-3     1.0142   
    13.938       0.25692E-3     1.0143   
    13.968       0.26064E-3     1.0144   
    13.998       0.26447E-3     1.0144   
    14.028       0.26840E-3     1.0145   
    14.058       0.27243E-3     1.0146   
    14.088       0.27658E-3     1.0147   
    14.118       0.28085E-3     1.0147   
    14.148       0.28524E-3     1.0148   
    14.178       0.28975E-3     1.0149   
    14.208       0.29440E-3     1.0150   
    14.238       0.29919E-3     1.0151   
    14.269       0.30413E-3     1.0152   
    14.299       0.30922E-3     1.0153   
    14.329       0.31447E-3     1.0153   
    14.359       0.31989E-3     1.0154   
    14.389       0.32549E-3     1.0155   
    14.419       0.33127E-3     1.0156   
    14.449       0.33726E-3     1.0157   
    14.479       0.34345E-3     1.0158   
    14.509       0.34987E-3     1.0159   
    14.539       0.35652E-3     1.0160   
    14.569       0.36341E-3     1.0161   
    14.599       0.37058E-3     1.0162   
    14.629       0.37802E-3     1.0163   
    14.659       0.38576E-3     1.0164   
    14.689       0.39382E-3     1.0166   
    14.719       0.40222E-3     1.0167   
    14.749       0.41099E-3     1.0168   
    14.780       0.42015E-3     1.0169   
    14.810       0.42974E-3     1.0170   
    14.840       0.43979E-3     1.0172   
    14.870       0.45033E-3     1.0173   
    14.900       0.46141E-3     1.0174   
    14.930       0.47309E-3     1.0176   
    14.960       0.48541E-3     1.0177   
    14.990       0.49845E-3     1.0179   
    15.020       0.51228E-3     1.0180   
    15.050       0.52699E-3     1.0181   
    15.080       0.54268E-3     1.0183   
    15.110       0.55949E-3     1.0185   
    15.140       0.57755E-3     1.0186   
    15.170       0.59707E-3     1.0188   
    15.200       0.61826E-3     1.0190   
    15.230       0.64143E-3     1.0192   
    15.261       0.66695E-3     1.0194   
    15.291       0.69532E-3     1.0196   
    15.321       0.72721E-3     1.0198   
    15.351       0.76353E-3     1.0200   
    15.381       0.80558E-3     1.0202   
    15.411       0.85524E-3     1.0204   
    15.441       0.91522E-3     1.0207   
    15.471       0.98931E-3     1.0209   
    15.501       0.10821E-2     1.0212   
    15.531       0.11966E-2     1.0214   
    15.561       0.13280E-2     1.0217   
    15.591       0.14610E-2     1.0219   
    15.621       0.15804E-2     1.0221   
    15.651       0.16729E-2     1.0223   
    15.681       0.17321E-2     1.0226   
    15.711       0.17867E-2     1.0229   
    15.741       0.18817E-2     1.0233   
    15.772       0.20472E-2     1.0237   
    15.802       0.23005E-2     1.0241   
    15.832       0.26449E-2     1.0245   
    15.862       0.30448E-2     1.0248   
    15.892       0.34206E-2     1.0250   
    15.922       0.37435E-2     1.0252   
    15.952       0.40794E-2     1.0255   
    15.982       0.44760E-2     1.0257   
    16.012       0.49200E-2     1.0259   
    16.042       0.53604E-2     1.0260   
    16.072       0.57764E-2     1.0261   
    16.102       0.61866E-2     1.0262   
    16.132       0.66070E-2     1.0262   
    16.162       0.70568E-2     1.0262   
    16.192       0.75256E-2     1.0262   
    16.222       0.79657E-2     1.0260   
    16.253       0.82871E-2     1.0257   
    16.283       0.84315E-2     1.0255   
    16.313       0.85002E-2     1.0253   
    16.343       0.85943E-2     1.0253   
    16.373       0.87041E-2     1.0252   
    16.403       0.87903E-2     1.0251   
    16.433       0.88610E-2     1.0251   
    16.463       0.89221E-2     1.0250   
    16.493       0.88890E-2     1.0249   
    16.523       0.87211E-2     1.0249   
    16.553       0.84895E-2     1.0250   
    16.583       0.82900E-2     1.0253   
    16.613       0.82190E-2     1.0258   
    16.643       0.83225E-2     1.0263   
    16.673       0.85117E-2     1.0267   
    16.703       0.86616E-2     1.0270   
    16.733       0.87879E-2     1.0274   
    16.764       0.90073E-2     1.0280   
    16.794       0.94022E-2     1.0286   
    16.824       0.10011E-1     1.0291   
    16.854       0.10850E-1     1.0295   
    16.884       0.11822E-1     1.0295   
    16.914       0.12604E-1     1.0291   
    16.944       0.12830E-1     1.0284   
    16.974       0.12534E-1     1.0281   
    17.004       0.12116E-1     1.0282   
    17.034       0.11924E-1     1.0288   
    17.064       0.12087E-1     1.0294   
    17.094       0.12520E-1     1.0299   
    17.124       0.12939E-1     1.0301   
    17.154       0.13052E-1     1.0301   
    17.184       0.12831E-1     1.0304   
    17.214       0.12523E-1     1.0312   
    17.244       0.12456E-1     1.0325   
    17.275       0.12854E-1     1.0340   
    17.305       0.13829E-1     1.0357   
    17.335       0.15416E-1     1.0372   
    17.364729      0.017441      1.038161
    17.394789      0.019467      1.038590
    17.424849      0.021281      1.038885
    17.454908      0.023269      1.039375
    17.484970      0.025988      1.039745
    17.515030      0.029452      1.039173
    17.545090      0.032911      1.037012
    17.575150      0.035134      1.033339
    17.605209      0.035236      1.029412
    17.635271      0.033815      1.026683
    17.665331      0.032130      1.025458
    17.695391      0.031009      1.025143
    17.725449      0.030425      1.024929
    17.755510      0.029786      1.024665
    17.785570      0.028934      1.024861
    17.815632      0.028385      1.025850
    17.845690      0.028814      1.027310
    17.875750      0.030403      1.028388
    17.905811      0.032545      1.028349
    17.935871      0.034261      1.027245
    17.965933      0.035125      1.025855
    17.995991      0.035462      1.024758
    18.026051      0.035733      1.023981
    18.056110      0.036017      1.023227
    18.086172      0.036034      1.022606
    18.116232      0.036082      1.022533
    18.146292      0.036728      1.022729
    18.176352      0.037890      1.022628
    18.206411      0.039221      1.022168
    18.236473      0.040766      1.021433
    18.266533      0.042587      1.020061
    18.296593      0.044056      1.017678
    18.326653      0.044398      1.014898
    18.356712      0.043995      1.012665
    18.386772      0.043677      1.010802
    18.416834      0.043324      1.008624
    18.446892      0.042263      1.006196
    18.476954      0.040345      1.004175
    18.507013      0.037985      1.002951
    18.537073      0.035550      1.002474
    18.567135      0.033098      1.002710
    18.597193      0.030847      1.003925
    18.627254      0.029486      1.006129
    18.657312      0.029621      1.008662
    18.687374      0.031232      1.010540
    18.717434      0.033645      1.011004
    18.747496      0.035856      1.009855
    18.777555      0.036833      1.007547
    18.807613      0.036041      1.005344
    18.837675      0.034236      1.004587
    18.867735      0.032920      1.005448
    18.897797      0.033098      1.007023
    18.927855      0.034954      1.008062
    18.957914      0.037839      1.007343
    18.987974      0.040174      1.004259
    19.018036      0.040105      0.999736
    19.048096      0.037185      0.996056
    19.078156      0.032974      0.994921
    19.108215      0.029481      0.996192
    19.138275      0.027728      0.998666
    19.168337      0.027796      1.001144
    19.198397      0.029280      1.002712
    19.228456      0.031381      1.002716
    19.258514      0.032895      1.001108
    19.288576      0.032915      0.998858
    19.318636      0.031710      0.997121
    19.348698      0.029975      0.996202
    19.378757      0.028057      0.996132
    19.408815      0.026413      0.997020
    19.438877      0.025671      0.998537
    19.468937      0.026004      0.999917
    19.498999      0.026977      1.000552
    19.529057      0.027952      1.000363
    19.559116      0.028521      0.999617
    19.589176      0.028474      0.998717
    19.619238      0.027976      0.998176
    19.649298      0.027591      0.998083
    19.679358      0.027573      0.997998
    19.709417      0.027680      0.997597
    19.739477      0.027603      0.996882
    19.769539      0.027120      0.996036
    19.799599      0.026176      0.995388
    19.829659      0.024986      0.995215
    19.859718      0.023877      0.995617
    19.889778      0.023252      0.996469
    19.919840      0.023365      0.997302
    19.949900      0.023994      0.997521
    19.979959      0.024445      0.996938
    20.010019      0.024218      0.996042
    20.040079      0.023454      0.995352
    20.070139      0.022425      0.994962
    20.100201      0.021173      0.994852
    20.130       0.19687E-1    0.99523   
    20.160       0.18320E-1    0.99637   
    20.190       0.17619E-1    0.99811   
    20.220       0.17846E-1    0.99990   
    20.251       0.18834E-1     1.0012   
    20.281       0.19992E-1     1.0016   
    20.310621      0.020717      1.001362
    20.340679      0.020914      1.001131
    20.370741      0.020847      1.001153
    20.400801      0.020795      1.001423
    20.430862      0.020823      1.001787
    20.460920      0.020851      1.002283
    20.490980      0.021041      1.003067
    20.521042      0.021735      1.004005
    20.551102      0.023001      1.004623
    20.581163      0.024423      1.004636
    20.611221      0.025675      1.004272
    20.641281      0.026868      1.003707
    20.671341      0.028030      1.002788
    20.701403      0.028958      1.001456
    20.731462      0.029448      0.999773
    20.761522      0.029267      0.997991
    20.791582      0.028526      0.996518
    20.821642      0.027540      0.995392
    20.851704      0.026285      0.994514
    20.881763      0.024708      0.994116
    20.911823      0.023115      0.994443
    20.941881      0.021932      0.995403
    20.971943      0.021392      0.996669
    21.002003      0.021494      0.997886
    21.032064      0.022073      0.998789
    21.062124      0.022850      0.999273
    21.092182      0.023627      0.999472
    21.122244      0.024478      0.999486
    21.152304      0.025431      0.999154
    21.182365      0.026262      0.998328
    21.212423      0.026616      0.997071
    21.242483      0.026187      0.995772
    21.272543      0.025078      0.995042
    21.302605      0.023862      0.995263
    21.332664      0.023262      0.996301
    21.362724      0.023759      0.997527
    21.392784      0.025268      0.998052
    21.422844      0.026969      0.997259
    21.452906      0.027820      0.995471
    21.482965      0.027562      0.993644
    21.513025      0.026688      0.992314
    21.543083      0.025613      0.991424
    21.573145      0.024383      0.990839
    21.603205      0.022970      0.990692
    21.633266      0.021664      0.991164
    21.663       0.20853E-1    0.99204   
    21.693       0.20571E-1    0.99293   
    21.723       0.20621E-1    0.99361   
    21.754       0.20827E-1    0.99402   
    21.784       0.20969E-1    0.99416   
    21.814       0.20859E-1    0.99425   
    21.844       0.20587E-1    0.99460   
    21.874       0.20517E-1    0.99531   
    21.904       0.20889E-1    0.99610   
    21.934       0.21613E-1    0.99668   
    21.963928      0.022479      0.997002
    21.993988      0.023490      0.997201
    22.024046      0.024858      0.997133
    22.054108      0.026459      0.996302
    22.084167      0.027530      0.994520
    22.114229      0.027436      0.992539
    22.144287      0.026591      0.991241
    22.174347      0.025752      0.990692
    22.204407      0.025343      0.990524
    22.234468      0.025452      0.990200
    22.264528      0.025654      0.989250
    22.294588      0.025227      0.987795
    22.324648      0.023898      0.986619
    22.355       0.22248E-1    0.98630   
    22.385       0.20905E-1    0.98666   
    22.415       0.20024E-1    0.98731   
    22.445       0.19594E-1    0.98802   
    22.475       0.19554E-1    0.98856   
    22.505       0.19679E-1    0.98875   
    22.535       0.19692E-1    0.98863   
    22.565       0.19396E-1    0.98842   
    22.595       0.18864E-1    0.98844   
    22.625       0.18411E-1    0.98882   
    22.655       0.18309E-1    0.98937   
    22.685       0.18584E-1    0.98974   
    22.715       0.18936E-1    0.98972   
    22.745       0.19041E-1    0.98948   
    22.776       0.18913E-1    0.98933   
    22.806       0.18772E-1    0.98942   
    22.836       0.18883E-1    0.98969   
    22.866       0.19429E-1    0.98986   
    22.896       0.20281E-1    0.98956   
    22.926       0.21107E-1    0.98859   
    22.956       0.21474E-1    0.98694   
    22.986       0.20903E-1    0.98491   
    23.016       0.19157E-1    0.98319   
    23.046       0.16700E-1    0.98257   
    23.076       0.14405E-1    0.98312   
    23.106       0.12770E-1    0.98438   
    23.136       0.11843E-1    0.98588   
    23.166       0.11538E-1    0.98735   
    23.196       0.11733E-1    0.98857   
    23.226       0.12232E-1    0.98939   
    23.257       0.12785E-1    0.98974   
    23.287       0.13096E-1    0.98973   
    23.317       0.13064E-1    0.98973   
    23.347       0.12997E-1    0.98996   
    23.377       0.13176E-1    0.99017   
    23.407       0.13405E-1    0.99001   
    23.437       0.13197E-1    0.98956   
    23.467       0.12453E-1    0.98937   
    23.497       0.11594E-1    0.98974   
    23.527       0.11012E-1    0.99051   
    23.557       0.10764E-1    0.99136   
    23.587       0.10713E-1    0.99217   
    23.617       0.10772E-1    0.99298   
    23.647       0.10998E-1    0.99381   
    23.677       0.11449E-1    0.99457   
    23.707       0.12007E-1    0.99511   
    23.737       0.12452E-1    0.99552   
    23.768       0.12815E-1    0.99608   
    23.798       0.13420E-1    0.99686   
    23.828       0.14493E-1    0.99759   
    23.858       0.15951E-1    0.99789   
    23.888       0.17451E-1    0.99758   
    23.918       0.18658E-1    0.99678   
    23.948       0.19369E-1    0.99569   
    23.978       0.19471E-1    0.99470   
    24.008       0.19278E-1    0.99424   
    24.038       0.19353E-1    0.99423   
    24.068       0.19825E-1    0.99423   
    24.098       0.20562E-1    0.99406   
    24.128       0.21522E-1    0.99357   
    24.158       0.22479E-1    0.99253   
    24.188       0.22947E-1    0.99096   
    24.218       0.22617E-1    0.98941   
    24.248       0.21916E-1    0.98848   
    24.279       0.21522E-1    0.98794   
    24.309       0.21380E-1    0.98714   
    24.339       0.20868E-1    0.98600   
    24.369       0.19781E-1    0.98508   
    24.399       0.18492E-1    0.98469   
    24.429       0.17271E-1    0.98471   
    24.459       0.16161E-1    0.98510   
    24.489       0.15344E-1    0.98587   
    24.519       0.15012E-1    0.98684   
    24.549       0.15187E-1    0.98775   
    24.579       0.15796E-1    0.98838   
    24.609       0.16673E-1    0.98853   
    24.639       0.17452E-1    0.98807   
    24.669       0.17731E-1    0.98729   
    24.699       0.17542E-1    0.98674   
    24.729       0.17433E-1    0.98658   
    24.760       0.17688E-1    0.98639   
    24.790       0.18045E-1    0.98580   
    24.820       0.18152E-1    0.98488   
    24.850       0.17873E-1    0.98387   
    24.880       0.17249E-1    0.98295   
    24.910       0.16380E-1    0.98225   
    24.940       0.15379E-1    0.98183   
    24.970       0.14369E-1    0.98168   
    25.000       0.13461E-1    0.98173   
# 
# 01/08/2018 at 17:17 YAMBO @ polluce [start]
# 01/08/2018 at 17:18                 [end]
#  
# Timing   [Min/Max/Average]: 01m-29s/01m-29s/01m-29s
#
# .-Input file : yambo.in
# | optics                         # [R OPT] Optics
# | chi                            # [R CHI] Dyson equation for Chi.
# | ElecTemp=0.1723E-4     eV      # Electronic Temperature
# | BoseTemp=0.1723E-4     eV      # Bosonic Temperature
# | FFTGvecs= 1807         RL      # [FFT] Plane-waves
# | X_Threads= 1                   # [OPENMP/X] Number of threads for response functions
# | DIP_Threads= 1                 # [OPENMP/X] Number of threads for dipoles
# | Chimod= "IP"                   # [X] IP/Hartree/ALDA/LRC/BSfxc
# | NGsBlkXd= 1            RL      # [Xd] Response block size
# | % QpntsRXd
# |   1 | 19 |                     # [Xd] Transferred momenta
# | %
# | % BndsRnXd
# |   2 |  7 |                     # [Xd] Polarization function bands
# | %
# | % EnRngeXd
# |  10.00000 | 25.00000 | eV      # [Xd] Energy range
# | %
# | % DmRngeXd
# |   0.10000 |  0.10000 | eV      # [Xd] Damping range
# | %
# | ETStpsXd=  500                 # [Xd] Total Energy steps
# | % LongDrXd
# | 0.1000E-4 | 0.000    | 0.000    |        # [Xd] [cc] Electric Field
# | %
# | % XfnQP_E
# |  5.350000 | 1.000000 | 1.000000 |        # [EXTQP Xd] E parameters  (c/v) eV|adim|adim
# | %
