#                                                           
#  __  __   ________   ___ __ __    _______   ______        
# /_/\/_/\ /_______/\ /__//_//_/\ /_______/\ /_____/\       
# \ \ \ \ \\::: _  \ \\::\| \| \ \\::: _  \ \\:::_ \ \      
#  \:\_\ \ \\::(_)  \ \\:.      \ \\::(_)  \/_\:\ \ \ \     
#   \::::_\/ \:: __  \ \\:.\-/\  \ \\::  _  \ \\:\ \ \ \    
#     \::\ \  \:.\ \  \ \\. \  \  \ \\::(_)  \ \\:\_\ \ \   
#      \__\/   \__\/\__\/ \__\/ \__\/ \_______\/ \_____\/   
#                                                           
#                                                           
#        Version 4.3.0 Revision 15186 Hash adaf3b3          
#                  MPI+SLK+OpenMP Build                     
#                http://www.yambo-code.org                  
#
# Absorption @ Q(17) [iku] : 0.0000000  0.2500000 -0.5000000
#
#
# BZ Energy DbGd points: 1000
#
# - Energies      are  Analyt. E
# - Wavefunctions are Slater exchange(X)+Perdew & Zunger(C)
#
# - The Green`s function is T-ordered -
#
#    E/ev[1]       EPS-Im[2]     EPS-Re[3]
#
    10.000       0.62961E-4     1.0076   
    10.030       0.63313E-4     1.0076   
    10.060       0.63668E-4     1.0076   
    10.090       0.64027E-4     1.0077   
    10.120       0.64390E-4     1.0077   
    10.150       0.64757E-4     1.0077   
    10.180       0.65128E-4     1.0077   
    10.210       0.65503E-4     1.0077   
    10.240       0.65883E-4     1.0077   
    10.271       0.66266E-4     1.0078   
    10.301       0.66654E-4     1.0078   
    10.331       0.67045E-4     1.0078   
    10.361       0.67442E-4     1.0078   
    10.391       0.67842E-4     1.0078   
    10.421       0.68248E-4     1.0078   
    10.451       0.68657E-4     1.0079   
    10.481       0.69072E-4     1.0079   
    10.511       0.69491E-4     1.0079   
    10.541       0.69915E-4     1.0079   
    10.571       0.70343E-4     1.0079   
    10.601       0.70777E-4     1.0079   
    10.631       0.71215E-4     1.0080   
    10.661       0.71659E-4     1.0080   
    10.691       0.72108E-4     1.0080   
    10.721       0.72562E-4     1.0080   
    10.752       0.73022E-4     1.0080   
    10.782       0.73486E-4     1.0080   
    10.812       0.73957E-4     1.0081   
    10.842       0.74433E-4     1.0081   
    10.872       0.74914E-4     1.0081   
    10.902       0.75402E-4     1.0081   
    10.932       0.75895E-4     1.0081   
    10.962       0.76394E-4     1.0082   
    10.992       0.76899E-4     1.0082   
    11.022       0.77411E-4     1.0082   
    11.052       0.77928E-4     1.0082   
    11.082       0.78452E-4     1.0082   
    11.112       0.78983E-4     1.0083   
    11.142       0.79520E-4     1.0083   
    11.172       0.80064E-4     1.0083   
    11.202       0.80615E-4     1.0083   
    11.232       0.81172E-4     1.0083   
    11.263       0.81737E-4     1.0084   
    11.293       0.82309E-4     1.0084   
    11.323       0.82888E-4     1.0084   
    11.353       0.83475E-4     1.0084   
    11.383       0.84069E-4     1.0085   
    11.413       0.84671E-4     1.0085   
    11.443       0.85281E-4     1.0085   
    11.473       0.85899E-4     1.0085   
    11.503       0.86525E-4     1.0085   
    11.533       0.87159E-4     1.0086   
    11.563       0.87802E-4     1.0086   
    11.593       0.88454E-4     1.0086   
    11.623       0.89114E-4     1.0086   
    11.653       0.89783E-4     1.0087   
    11.683       0.90461E-4     1.0087   
    11.713       0.91149E-4     1.0087   
    11.743       0.91846E-4     1.0087   
    11.774       0.92553E-4     1.0088   
    11.804       0.93270E-4     1.0088   
    11.834       0.93997E-4     1.0088   
    11.864       0.94734E-4     1.0088   
    11.894       0.95481E-4     1.0088   
    11.924       0.96239E-4     1.0089   
    11.954       0.97008E-4     1.0089   
    11.984       0.97789E-4     1.0089   
    12.014       0.98580E-4     1.0090   
    12.044       0.99384E-4     1.0090   
    12.074       0.10020E-3     1.0090   
    12.104       0.10103E-3     1.0090   
    12.134       0.10187E-3     1.0091   
    12.164       0.10272E-3     1.0091   
    12.194       0.10358E-3     1.0091   
    12.224       0.10446E-3     1.0091   
    12.255       0.10535E-3     1.0092   
    12.285       0.10626E-3     1.0092   
    12.315       0.10718E-3     1.0092   
    12.345       0.10811E-3     1.0093   
    12.375       0.10906E-3     1.0093   
    12.405       0.11002E-3     1.0093   
    12.435       0.11100E-3     1.0093   
    12.465       0.11200E-3     1.0094   
    12.495       0.11301E-3     1.0094   
    12.525       0.11404E-3     1.0094   
    12.555       0.11508E-3     1.0095   
    12.585       0.11614E-3     1.0095   
    12.615       0.11722E-3     1.0095   
    12.645       0.11832E-3     1.0096   
    12.675       0.11944E-3     1.0096   
    12.705       0.12057E-3     1.0096   
    12.735       0.12173E-3     1.0097   
    12.766       0.12290E-3     1.0097   
    12.796       0.12410E-3     1.0097   
    12.826       0.12531E-3     1.0098   
    12.856       0.12655E-3     1.0098   
    12.886       0.12781E-3     1.0098   
    12.916       0.12910E-3     1.0099   
    12.946       0.13041E-3     1.0099   
    12.976       0.13174E-3     1.0099   
    13.006       0.13309E-3     1.0100   
    13.036       0.13448E-3     1.0100   
    13.066       0.13589E-3     1.0101   
    13.096       0.13732E-3     1.0101   
    13.126       0.13879E-3     1.0101   
    13.156       0.14028E-3     1.0102   
    13.186       0.14180E-3     1.0102   
    13.216       0.14335E-3     1.0102   
    13.246       0.14493E-3     1.0103   
    13.277       0.14655E-3     1.0103   
    13.307       0.14820E-3     1.0104   
    13.337       0.14988E-3     1.0104   
    13.367       0.15160E-3     1.0105   
    13.397       0.15336E-3     1.0105   
    13.427       0.15515E-3     1.0105   
    13.457       0.15699E-3     1.0106   
    13.487       0.15886E-3     1.0106   
    13.517       0.16078E-3     1.0107   
    13.547       0.16274E-3     1.0107   
    13.577       0.16474E-3     1.0108   
    13.607       0.16679E-3     1.0108   
    13.637       0.16889E-3     1.0109   
    13.667       0.17105E-3     1.0109   
    13.697       0.17325E-3     1.0110   
    13.727       0.17551E-3     1.0110   
    13.758       0.17782E-3     1.0111   
    13.788       0.18019E-3     1.0111   
    13.818       0.18263E-3     1.0112   
    13.848       0.18513E-3     1.0112   
    13.878       0.18769E-3     1.0113   
    13.908       0.19033E-3     1.0113   
    13.938       0.19304E-3     1.0114   
    13.968       0.19583E-3     1.0114   
    13.998       0.19869E-3     1.0115   
    14.028       0.20164E-3     1.0115   
    14.058       0.20468E-3     1.0116   
    14.088       0.20782E-3     1.0117   
    14.118       0.21105E-3     1.0117   
    14.148       0.21439E-3     1.0118   
    14.178       0.21784E-3     1.0118   
    14.208       0.22141E-3     1.0119   
    14.238       0.22510E-3     1.0120   
    14.269       0.22892E-3     1.0120   
    14.299       0.23289E-3     1.0121   
    14.329       0.23701E-3     1.0122   
    14.359       0.24130E-3     1.0122   
    14.389       0.24576E-3     1.0123   
    14.419       0.25042E-3     1.0124   
    14.449       0.25529E-3     1.0124   
    14.479       0.26039E-3     1.0125   
    14.509       0.26574E-3     1.0126   
    14.539       0.27138E-3     1.0127   
    14.569       0.27734E-3     1.0128   
    14.599       0.28366E-3     1.0128   
    14.629       0.29039E-3     1.0129   
    14.659       0.29759E-3     1.0130   
    14.689       0.30534E-3     1.0131   
    14.719       0.31376E-3     1.0132   
    14.749       0.32298E-3     1.0133   
    14.780       0.33320E-3     1.0134   
    14.810       0.34467E-3     1.0135   
    14.840       0.35778E-3     1.0136   
    14.870       0.37307E-3     1.0137   
    14.900       0.39137E-3     1.0138   
    14.930       0.41388E-3     1.0139   
    14.960       0.44235E-3     1.0140   
    14.990       0.47896E-3     1.0141   
    15.020       0.52517E-3     1.0142   
    15.050       0.57792E-3     1.0143   
    15.080       0.62486E-3     1.0144   
    15.110       0.65046E-3     1.0145   
    15.140       0.65384E-3     1.0145   
    15.170       0.64841E-3     1.0146   
    15.200       0.64375E-3     1.0148   
    15.230       0.64360E-3     1.0149   
    15.261       0.65294E-3     1.0151   
    15.291       0.67647E-3     1.0152   
    15.321       0.71723E-3     1.0154   
    15.351       0.77759E-3     1.0156   
    15.381       0.85801E-3     1.0157   
    15.411       0.95333E-3     1.0159   
    15.441       0.10550E-2     1.0160   
    15.471       0.11621E-2     1.0162   
    15.501       0.12766E-2     1.0163   
    15.531       0.13908E-2     1.0164   
    15.561       0.14988E-2     1.0165   
    15.591       0.16011E-2     1.0166   
    15.621       0.16888E-2     1.0166   
    15.651       0.17445E-2     1.0167   
    15.681       0.17678E-2     1.0168   
    15.711       0.17839E-2     1.0169   
    15.741       0.18202E-2     1.0171   
    15.772       0.18979E-2     1.0172   
    15.802       0.20129E-2     1.0174   
    15.832       0.21145E-2     1.0174   
    15.862       0.21519E-2     1.0175   
    15.892       0.21367E-2     1.0176   
    15.922       0.21213E-2     1.0178   
    15.952       0.21281E-2     1.0180   
    15.982       0.21429E-2     1.0182   
    16.012       0.21652E-2     1.0184   
    16.042       0.22165E-2     1.0187   
    16.072       0.23196E-2     1.0191   
    16.102       0.24800E-2     1.0194   
    16.132       0.26830E-2     1.0197   
    16.162       0.29106E-2     1.0200   
    16.192       0.31394E-2     1.0202   
    16.222       0.33535E-2     1.0204   
    16.253       0.35747E-2     1.0207   
    16.283       0.38514E-2     1.0210   
    16.313       0.42091E-2     1.0214   
    16.343       0.46307E-2     1.0216   
    16.373       0.50964E-2     1.0219   
    16.403       0.56038E-2     1.0220   
    16.433       0.61471E-2     1.0221   
    16.463       0.66999E-2     1.0222   
    16.493       0.72640E-2     1.0221   
    16.523       0.78836E-2     1.0220   
    16.553       0.85383E-2     1.0218   
    16.583       0.90911E-2     1.0212   
    16.613       0.93964E-2     1.0205   
    16.643       0.93843E-2     1.0198   
    16.673       0.90542E-2     1.0192   
    16.703       0.84967E-2     1.0189   
    16.733       0.78699E-2     1.0188   
    16.764       0.73263E-2     1.0191   
    16.794       0.69616E-2     1.0197   
    16.824       0.68362E-2     1.0203   
    16.854       0.69599E-2     1.0210   
    16.884       0.72728E-2     1.0215   
    16.914       0.76782E-2     1.0219   
    16.944       0.80623E-2     1.0222   
    16.974       0.83578E-2     1.0224   
    17.004       0.86190E-2     1.0227   
    17.034       0.89519E-2     1.0231   
    17.064       0.94306E-2     1.0236   
    17.094       0.10069E-1     1.0240   
    17.124       0.10815E-1     1.0243   
    17.154       0.11597E-1     1.0244   
    17.184       0.12413E-1     1.0245   
    17.214       0.13331E-1     1.0245   
    17.244       0.14369E-1     1.0243   
    17.275       0.15446E-1     1.0237   
    17.305       0.16336E-1     1.0228   
    17.335       0.16723E-1     1.0215   
    17.365       0.16399E-1     1.0202   
    17.395       0.15603E-1     1.0195   
    17.425       0.14841E-1     1.0195   
    17.455       0.14342E-1     1.0197   
    17.485       0.14036E-1     1.0201   
    17.515       0.13852E-1     1.0205   
    17.545       0.13831E-1     1.0211   
    17.575       0.14083E-1     1.0219   
    17.605       0.14658E-1     1.0225   
    17.635       0.15460E-1     1.0230   
    17.665       0.16358E-1     1.0232   
    17.695       0.17253E-1     1.0233   
    17.725449      0.018092      1.023187
    17.755510      0.018891      1.023021
    17.785570      0.019674      1.022784
    17.815632      0.020412      1.022470
    17.845690      0.021099      1.022144
    17.875750      0.021808      1.021832
    17.905811      0.022604      1.021501
    17.935871      0.023559      1.021055
    17.965933      0.024625      1.020280
    17.995991      0.025506      1.019079
    18.026051      0.025941      1.017677
    18.056110      0.025984      1.016395
    18.086172      0.025879      1.015311
    18.116232      0.025706      1.014282
    18.146292      0.025345      1.013297
    18.176352      0.024801      1.012515
    18.206411      0.024232      1.012007
    18.236473      0.023794      1.011704
    18.266533      0.023548      1.011434
    18.296593      0.023377      1.011070
    18.326653      0.023183      1.010660
    18.356712      0.023000      1.010208
    18.386772      0.022748      1.009616
    18.416834      0.022218      1.008971
    18.446892      0.021409      1.008548
    18.476954      0.020537      1.008483
    18.507013      0.019809      1.008713
    18.537073      0.019299      1.009097
    18.567135      0.019010      1.009534
    18.597193      0.018917      1.009917
    18.627254      0.018893      1.010178
    18.657312      0.018817      1.010419
    18.687374      0.018762      1.010801
    18.717434      0.018938      1.011312
    18.747496      0.019452      1.011725
    18.777555      0.020158      1.011811
    18.807613      0.020815      1.011573
    18.837675      0.021324      1.011118
    18.867735      0.021625      1.010519
    18.897797      0.021672      1.009911
    18.927855      0.021566      1.009432
    18.957914      0.021437      1.009043
    18.987974      0.021274      1.008693
    19.018036      0.021099      1.008384
    19.048096      0.020899      1.008036
    19.078156      0.020531      1.007666
    19.108215      0.019945      1.007467
    19.138275      0.019302      1.007620
    19.168       0.18871E-1     1.0081   
    19.198       0.18778E-1     1.0087   
    19.228       0.19025E-1     1.0093   
    19.258514      0.019638      1.009693
    19.288576      0.020494      1.009623
    19.318636      0.021184      1.008956
    19.348698      0.021294      1.007948
    19.378757      0.020723      1.007118
    19.408815      0.019812      1.006898
    19.439       0.19091E-1     1.0073   
    19.469       0.18868E-1     1.0080   
    19.499       0.19105E-1     1.0085   
    19.529       0.19514E-1     1.0087   
    19.559116      0.019862      1.008793
    19.589176      0.020192      1.008819
    19.619238      0.020646      1.008773
    19.649298      0.021163      1.008469
    19.679358      0.021527      1.007882
    19.709417      0.021581      1.007150
    19.739477      0.021285      1.006477
    19.769539      0.020750      1.006050
    19.799599      0.020161      1.005909
    19.830       0.19642E-1     1.0060   
    19.860       0.19257E-1     1.0062   
    19.890       0.18980E-1     1.0065   
    19.920       0.18753E-1     1.0068   
    19.950       0.18602E-1     1.0073   
    19.980       0.18608E-1     1.0078   
    20.010       0.18843E-1     1.0084   
    20.040       0.19344E-1     1.0089   
    20.070       0.20055E-1     1.0091   
    20.100201      0.020782      1.009012
    20.130259      0.021293      1.008659
    20.160320      0.021554      1.008306
    20.190380      0.021733      1.008066
    20.220440      0.021940      1.007869
    20.250502      0.022166      1.007639
    20.280560      0.022366      1.007357
    20.310621      0.022509      1.007053
    20.340679      0.022622      1.006757
    20.370741      0.022746      1.006415
    20.400801      0.022780      1.005927
    20.430862      0.022499      1.005401
    20.460920      0.021930      1.005186
    20.490980      0.021433      1.005411
    20.521042      0.021270      1.005842
    20.551102      0.021389      1.006203
    20.581163      0.021593      1.006422
    20.611221      0.021786      1.006612
    20.641281      0.022054      1.006866
    20.671341      0.022506      1.007105
    20.701403      0.023116      1.007201
    20.731462      0.023794      1.007109
    20.761522      0.024487      1.006827
    20.791582      0.025140      1.006327
    20.821642      0.025630      1.005612
    20.851704      0.025861      1.004807
    20.881763      0.025857      1.004046
    20.911823      0.025685      1.003410
    20.941881      0.025444      1.002931
    20.971943      0.025220      1.002565
    21.002003      0.025024      1.002234
    21.032064      0.024793      1.001896
    21.062124      0.024455      1.001619
    21.092182      0.024074      1.001502
    21.122244      0.023729      1.001512
    21.152304      0.023386      1.001657
    21.182365      0.023128      1.002055
    21.212423      0.023195      1.002675
    21.242483      0.023736      1.003275
    21.272543      0.024696      1.003551
    21.302605      0.025825      1.003304
    21.332664      0.026828      1.002535
    21.362724      0.027480      1.001375
    21.392784      0.027654      1.000047
    21.422844      0.027350      0.998776
    21.452906      0.026650      0.997772
    21.482965      0.025763      0.997188
    21.513025      0.024951      0.996992
    21.543083      0.024352      0.996994
    21.573145      0.023908      0.997021
    21.603205      0.023491      0.997063
    21.633266      0.023080      0.997226
    21.663326      0.022797      0.997582
    21.693386      0.022823      0.998047
    21.723446      0.023227      0.998367
    21.753506      0.023824      0.998282
    21.783567      0.024259      0.997781
    21.813625      0.024331      0.997153
    21.843687      0.024184      0.996665
    21.873745      0.024028      0.996281
    21.903807      0.023849      0.995868
    21.933867      0.023528      0.995446
    21.963928      0.023055      0.995164
    21.993988      0.022571      0.995111
    22.024046      0.022238      0.995227
    22.054108      0.022106      0.995341
    22.084       0.22069E-1    0.99533   
    22.114       0.22021E-1    0.99522   
    22.144       0.21916E-1    0.99501   
    22.174       0.21664E-1    0.99474   
    22.204       0.21182E-1    0.99455   
    22.234       0.20557E-1    0.99463   
    22.265       0.19963E-1    0.99507   
    22.295       0.19641E-1    0.99586   
    22.325       0.19841E-1    0.99681   
    22.355       0.20590E-1    0.99753   
    22.385       0.21637E-1    0.99777   
    22.414829      0.022704      0.997459
    22.444889      0.023486      0.996646
    22.474949      0.023720      0.995635
    22.505009      0.023505      0.994841
    22.535070      0.023196      0.994378
    22.565130      0.022981      0.994048
    22.595190      0.022768      0.993700
    22.625       0.22429E-1    0.99340   
    22.655       0.22011E-1    0.99332   
    22.685       0.21750E-1    0.99350   
    22.715       0.21785E-1    0.99373   
    22.745       0.22068E-1    0.99381   
    22.776       0.22449E-1    0.99362   
    22.806       0.22683E-1    0.99316   
    22.836       0.22648E-1    0.99269   
    22.866       0.22479E-1    0.99239   
    22.896       0.22398E-1    0.99231   
    22.926       0.22594E-1    0.99229   
    22.955910      0.023102      0.992048
    22.985971      0.023696      0.991331
    23.016031      0.024018      0.990129
    23.046091      0.023793      0.988659
    23.076       0.22908E-1    0.98728   
    23.106       0.21546E-1    0.98637   
    23.136       0.20066E-1    0.98604   
    23.166       0.18716E-1    0.98616   
    23.196       0.17608E-1    0.98660   
    23.226       0.16815E-1    0.98721   
    23.257       0.16312E-1    0.98783   
    23.287       0.15975E-1    0.98835   
    23.317       0.15710E-1    0.98883   
    23.347       0.15518E-1    0.98930   
    23.377       0.15447E-1    0.98978   
    23.407       0.15521E-1    0.99017   
    23.437       0.15656E-1    0.99040   
    23.467       0.15733E-1    0.99050   
    23.497       0.15720E-1    0.99057   
    23.527       0.15672E-1    0.99068   
    23.557       0.15633E-1    0.99081   
    23.587       0.15604E-1    0.99092   
    23.617       0.15542E-1    0.99104   
    23.647       0.15445E-1    0.99124   
    23.677       0.15443E-1    0.99159   
    23.707       0.15662E-1    0.99195   
    23.737       0.16094E-1    0.99218   
    23.768       0.16625E-1    0.99213   
    23.798       0.17057E-1    0.99176   
    23.828       0.17173E-1    0.99121   
    23.858       0.16938E-1    0.99077   
    23.888       0.16563E-1    0.99061   
    23.918       0.16258E-1    0.99069   
    23.948       0.16095E-1    0.99088   
    23.978       0.16081E-1    0.99112   
    24.008       0.16222E-1    0.99133   
    24.038       0.16480E-1    0.99143   
    24.068       0.16760E-1    0.99137   
    24.098       0.16970E-1    0.99118   
    24.128       0.17030E-1    0.99092   
    24.158       0.16919E-1    0.99077   
    24.188       0.16798E-1    0.99084   
    24.218       0.16862E-1    0.99107   
    24.248       0.17161E-1    0.99128   
    24.279       0.17646E-1    0.99138   
    24.309       0.18262E-1    0.99128   
    24.339       0.18928E-1    0.99094   
    24.369       0.19529E-1    0.99033   
    24.399       0.19967E-1    0.98952   
    24.429       0.20176E-1    0.98857   
    24.459       0.20118E-1    0.98759   
    24.489       0.19847E-1    0.98672   
    24.519       0.19516E-1    0.98597   
    24.549       0.19169E-1    0.98522   
    24.579       0.18653E-1    0.98438   
    24.609       0.17842E-1    0.98366   
    24.639       0.16881E-1    0.98324   
    24.669       0.16002E-1    0.98311   
    24.699       0.15261E-1    0.98309   
    24.729       0.14602E-1    0.98312   
    24.760       0.13996E-1    0.98320   
    24.790       0.13459E-1    0.98332   
    24.820       0.12993E-1    0.98346   
    24.850       0.12573E-1    0.98359   
    24.880       0.12176E-1    0.98372   
    24.910       0.11793E-1    0.98385   
    24.940       0.11414E-1    0.98398   
    24.970       0.11049E-1    0.98414   
    25.000       0.10706E-1    0.98430   
# 
# 01/08/2018 at 17:17 YAMBO @ polluce [start]
# 01/08/2018 at 17:18                 [end]
#  
# Timing   [Min/Max/Average]: 01m-29s/01m-29s/01m-29s
#
# .-Input file : yambo.in
# | optics                         # [R OPT] Optics
# | chi                            # [R CHI] Dyson equation for Chi.
# | ElecTemp=0.1723E-4     eV      # Electronic Temperature
# | BoseTemp=0.1723E-4     eV      # Bosonic Temperature
# | FFTGvecs= 1807         RL      # [FFT] Plane-waves
# | X_Threads= 1                   # [OPENMP/X] Number of threads for response functions
# | DIP_Threads= 1                 # [OPENMP/X] Number of threads for dipoles
# | Chimod= "IP"                   # [X] IP/Hartree/ALDA/LRC/BSfxc
# | NGsBlkXd= 1            RL      # [Xd] Response block size
# | % QpntsRXd
# |   1 | 19 |                     # [Xd] Transferred momenta
# | %
# | % BndsRnXd
# |   2 |  7 |                     # [Xd] Polarization function bands
# | %
# | % EnRngeXd
# |  10.00000 | 25.00000 | eV      # [Xd] Energy range
# | %
# | % DmRngeXd
# |   0.10000 |  0.10000 | eV      # [Xd] Damping range
# | %
# | ETStpsXd=  500                 # [Xd] Total Energy steps
# | % LongDrXd
# | 0.1000E-4 | 0.000    | 0.000    |        # [Xd] [cc] Electric Field
# | %
# | % XfnQP_E
# |  5.350000 | 1.000000 | 1.000000 |        # [EXTQP Xd] E parameters  (c/v) eV|adim|adim
# | %
