#                                                           
# :::   :::   :::     ::::    ::::  :::::::::   ::::::::    
# :+:   :+: :+: :+:   +:+:+: :+:+:+ :+:    :+: :+:    :+:   
#  +:+ +:+ +:+   +:+  +:+ +:+:+ +:+ +:+    +:+ +:+    +:+   
#   +#++: +#++:++#++: +#+  +:+  +#+ +#++:++#+  +#+    +:+   
#    +#+  +#+     +#+ +#+       +#+ +#+    +#+ +#+    +#+   
#    #+#  #+#     #+# #+#       #+# #+#    #+# #+#    #+#   
#    ###  ###     ### ###       ### #########   ########    
#                                                           
#                                                           
#        Version 4.2.0 Revision 14428 Hash 698a636          
#                  MPI+SLK+OpenMP Build                     
#                http://www.yambo-code.org                  
#
# Absorption @ Q(1) [q->0 direction] :0.1000E-4  0.000     0.000   
#
#
# - Energies      are GoWo Plasmon Pole appox.
# - Wavefunctions are Slater exchange(X)+Perdew & Zunger(C)
#
# - The Green`s function is Retarded -
# - Using the Length Gauge -
# - [r,Vnl] *is* included -
#
#   BSK|Identifier              :6425
#      |Dimension               :72
#      |Bands                   :2 - 7
#      |Exchange           [res]: yes
#      |Correlation        [res]: yes
#      |Kernel`s coupling       : no
#      |Exchange           [cpl]: no
#      |Correlation        [cpl]: no
#      |W interaction is bare   : no
#      |ALDA kernel in R-space  : no
#      |RL vectors    [exchange]:531
#      |RL vectors [correlation]:59
#      |E/h energy range    [ev]:-1.000000 - -1.000000
#      |Coupling range     [o/o]: 100.0000 -  100.0000
#    W |Interaction is diagonal : no
#      |Matrix size             :59
#      |Bands                   :1 - 8
#      |e/h energy range    [ev]:-1.000000 - -1.000000
#      |Poles              [o/o]: 100.0000
#      |RL vectors in the sum   :387
#      |[r,Vnl] included        : yes
#      |Field direction         :0.1000E-4  0.000000  0.000000
#      |Coulomb Cutoff          :none
#      |xc-Kernel               :none
#   RIM|RL components      [col]:0
#      |Random points      [col]:0
#  
#   Haydock|Accuracy (requested) [o/o]:  0.02000
#          |Accuracy (reached)   [o/o]:  0.01165
#          |Iteration                 :20
#
#    E/ev[1]      EPS-Im[2]    EPS-Re[3]    EPSo-Im[4]   EPSo-Re[5]   EPS`-Im[6]   EPS`-Re[7]
#
     0.00000      0.00000     51.25466      0.00000     47.07064      0.00000     51.25466
   0.2004E-1    0.1985E-1     51.26       0.1524E-1     47.07       0.1985E-1     51.26   
   0.4008E-1    0.3971E-1     51.26       0.3049E-1     47.08       0.3971E-1     51.26   
   0.6012E-1    0.5960E-1     51.27       0.4575E-1     47.08       0.5960E-1     51.27   
     0.08016      0.07951     51.28637      0.06103     47.09497      0.07951     51.28637
     0.10020      0.09946     51.30423      0.07634     47.10868      0.09946     51.30423
     0.12024      0.11947     51.32607      0.09168     47.12546      0.11947     51.32607
     0.14028      0.13953     51.35191      0.10707     47.14529      0.13953     51.35191
     0.16032      0.15967     51.38176      0.12249     47.16821      0.15967     51.38176
     0.18036      0.17989     51.41564      0.13798     47.19421      0.17989     51.41564
     0.20040      0.20021     51.45356      0.15352     47.22334      0.20021     51.45356
     0.22044      0.22062     51.49554      0.16913     47.25555      0.22062     51.49554
     0.24048      0.24115     51.54161      0.18482     47.29088      0.24115     51.54161
     0.26052      0.26181     51.59178      0.20059     47.32935      0.26181     51.59178
     0.28056      0.28261     51.64609      0.21645     47.37098      0.28261     51.64609
     0.30060      0.30355     51.70457      0.23240     47.41577      0.30355     51.70457
     0.32064      0.32466     51.76723      0.24846     47.46379      0.32466     51.76723
     0.34068      0.34593     51.83413      0.26463     47.51500      0.34593     51.83413
     0.36072      0.36739     51.90528      0.28092     47.56944      0.36739     51.90528
     0.38076      0.38905     51.98073      0.29734     47.62716      0.38905     51.98073
     0.40080      0.41092     52.06053      0.31390     47.68819      0.41092     52.06053
     0.42084      0.43301     52.14471      0.33059     47.75253      0.43301     52.14471
     0.44088      0.45533     52.23331      0.34744     47.82019      0.45533     52.23331
     0.46092      0.47791     52.32639      0.36446     47.89123      0.47791     52.32639
     0.48096      0.50074     52.42399      0.38164     47.96568      0.50074     52.42399
     0.50100      0.52386     52.52618      0.39900     48.04362      0.52386     52.52618
     0.52104      0.54727     52.63301      0.41655     48.12503      0.54727     52.63301
     0.54108      0.57098     52.74452      0.43429     48.20992      0.57098     52.74452
     0.56112      0.59502     52.86080      0.45225     48.29840      0.59502     52.86080
     0.58116      0.61940     52.98189      0.47042     48.39049      0.61940     52.98189
     0.60120      0.64413     53.10788      0.48882     48.48619      0.64413     53.10788
     0.62124      0.66924     53.23884      0.50745     48.58559      0.66924     53.23884
     0.64128      0.69474     53.37484      0.52634     48.68877      0.69474     53.37484
     0.66132      0.72065     53.51595      0.54549     48.79570      0.72065     53.51595
     0.68136      0.74699     53.66227      0.56491     48.90652      0.74699     53.66227
     0.70140      0.77378     53.81388      0.58462     49.02123      0.77378     53.81388
     0.72144      0.80104     53.97086      0.60462     49.13985      0.80104     53.97086
     0.74148      0.82879     54.13332      0.62494     49.26254      0.82879     54.13332
     0.76152      0.85705     54.30136      0.64557     49.38928      0.85705     54.30136
     0.78156      0.88586     54.47508      0.66655     49.52016      0.88586     54.47508
     0.80160      0.91522     54.65458      0.68788     49.65526      0.91522     54.65458
     0.82164      0.94517     54.83997      0.70957     49.79469      0.94517     54.83997
     0.84168      0.97573     55.03139      0.73165     49.93842      0.97573     55.03139
     0.86172      1.00694     55.22896      0.75412     50.08662      1.00694     55.22896
     0.88176      1.03881     55.43279      0.77701     50.23931      1.03881     55.43279
     0.90180      1.07139     55.64303      0.80034     50.39661      1.07139     55.64303
     0.92184      1.10469     55.85981      0.82411     50.55859      1.10469     55.85981
     0.94188      1.13876     56.08330      0.84836     50.72538      1.13876     56.08330
     0.96192      1.17362     56.31362      0.87310     50.89705      1.17362     56.31362
     0.98196      1.20932     56.55095      0.89834     51.07367      1.20932     56.55095
     1.00200      1.24589     56.79547      0.92412     51.25535      1.24589     56.79547
     1.02204      1.28337     57.04733      0.95046     51.44223      1.28337     57.04733
     1.04208      1.32181     57.30672      0.97737     51.63442      1.32181     57.30672
     1.06212      1.36124     57.57384      1.00489     51.83196      1.36124     57.57384
     1.08216      1.40171     57.84889      1.03303     52.03510      1.40171     57.84889
     1.10220      1.44328     58.13208      1.06183     52.24386      1.44328     58.13208
     1.12224      1.48599     58.42363      1.09132     52.45847      1.48599     58.42363
     1.14228      1.52989     58.72375      1.12152     52.67892      1.52989     58.72375
     1.16232      1.57505     59.03270      1.15246     52.90553      1.57505     59.03270
     1.18236      1.62151     59.35073      1.18418     53.13830      1.62151     59.35073
     1.20240      1.66936     59.67810      1.21672     53.37749      1.66936     59.67810
     1.22244      1.71865     60.01508      1.25011     53.62318      1.71865     60.01508
     1.24248      1.76945     60.36198      1.28438     53.87564      1.76945     60.36198
     1.26252      1.82184     60.71908      1.31958     54.13494      1.82184     60.71908
     1.28257      1.87590     61.08671      1.35575     54.40134      1.87590     61.08671
     1.30261      1.93172     61.46520      1.39293     54.67500      1.93172     61.46520
     1.32265      1.98937     61.85490      1.43118     54.95615      1.98937     61.85490
     1.34269      2.04896     62.25619      1.47054     55.24499      2.04896     62.25619
     1.36273      2.11059     62.66945      1.51106     55.54174      2.11059     62.66945
     1.38277      2.17437     63.09507      1.55280     55.84661      2.17437     63.09507
     1.40281      2.24041     63.53352      1.59583     56.15991      2.24041     63.53352
     1.42285      2.30884     63.98522      1.64019     56.48183      2.30884     63.98522
     1.44289      2.37978     64.45065      1.68597     56.81267      2.37978     64.45065
     1.46293      2.45337     64.93033      1.73323     57.15271      2.45337     64.93033
     1.48297      2.52977     65.42476      1.78204     57.50224      2.52977     65.42476
     1.50301      2.60913     65.93453      1.83250     57.86160      2.60913     65.93453
     1.52305      2.69163     66.46021      1.88467     58.23106      2.69163     66.46021
     1.54309      2.77744     67.00243      1.93866     58.61102      2.77744     67.00243
     1.56313      2.86678     67.56186      1.99455     59.00182      2.86678     67.56186
     1.58317      2.95985     68.13918      2.05247     59.40383      2.95985     68.13918
     1.60321      3.05687     68.73515      2.11251     59.81749      3.05687     68.73515
     1.62325      3.15811     69.35055      2.17479     60.24317      3.15811     69.35055
     1.64329      3.26381     69.98621      2.23944     60.68134      3.26381     69.98621
     1.66333      3.37428     70.64302      2.30661     61.13248      3.37428     70.64302
     1.68337      3.48983     71.32193      2.37643     61.59711      3.48983     71.32193
     1.70341      3.61079     72.02393      2.44907     62.07570      3.61079     72.02393
     1.72345      3.73753     72.75011      2.52470     62.56889      3.73753     72.75011
     1.74349      3.87045     73.50159      2.60350     63.07717      3.87045     73.50159
     1.76353      4.00998     74.27958      2.68566     63.60130      4.00998     74.27958
     1.78357      4.15661     75.08540      2.77141     64.14182      4.15661     75.08540
     1.80361      4.31085     75.92046      2.86098     64.69948      4.31085     75.92046
     1.82365      4.47327     76.78620      2.95463     65.27511      4.47327     76.78620
     1.84369      4.64448     77.68429      3.05262     65.86938      4.64448     77.68429
     1.86373      4.82519     78.61639      3.15526     66.48326      4.82519     78.61639
     1.88377      5.01613     79.58439      3.26287     67.11765      5.01613     79.58439
     1.90381      5.21814     80.59025      3.37582     67.77346      5.21814     80.59025
     1.92385      5.43214     81.63614      3.49449     68.45181      5.43214     81.63614
     1.94389      5.65915     82.72437      3.61931     69.15375      5.65915     82.72437
     1.96393      5.90029     83.85748      3.75076     69.88054      5.90029     83.85748
     1.98397      6.15683     85.03815      3.88935     70.63344      6.15683     85.03815
     2.00401      6.43016     86.26936      4.03565     71.41386      6.43016     86.26936
     2.02405      6.72187     87.55431      4.19031     72.22330      6.72187     87.55431
     2.04409      7.03371     88.89648      4.35402     73.06332      7.03371     88.89648
     2.06413      7.36767     90.29974      4.52757     73.93575      7.36767     90.29974
     2.08417      7.72599     91.76820      4.71183     74.84245      7.72599     91.76820
     2.10421      8.11121     93.30648      4.90777     75.78542      8.11121     93.30648
     2.12425      8.52621     94.91957      5.11650     76.76699      8.52621     94.91957
     2.14429      8.97428     96.61299      5.33923     77.78947      8.97428     96.61299
     2.16433      9.45919     98.39283      5.57736     78.85567      9.45919     98.39283
      2.1844       9.9853     100.2658       5.8325      79.9683       9.9853     100.2658
      2.2044      10.5575     102.2393       6.1063      81.1306      10.5575     102.2393
      2.2244      11.1817     104.3217       6.4010      82.3460      11.1817     104.3217
      2.2445      11.8646     106.5221       6.7187      83.6185      11.8646     106.5221
      2.2645      12.6142     108.8507       7.0623      84.9521      12.6142     108.8507
      2.2846      13.4397     111.3190       7.4348      86.3516      13.4397     111.3190
      2.3046      14.3521     113.9398       7.8398      87.8222      14.3521     113.9398
      2.3246      15.3645     116.7275       8.2815      89.3695      15.3645     116.7275
      2.3447      16.4928     119.6982       8.7648      90.9998      16.4928     119.6982
      2.3647      17.7558     122.8700       9.2956      92.7205      17.7558     122.8700
      2.3848      19.1766     126.2634       9.8806      94.5394      19.1766     126.2634
      2.4048      20.7835     129.9013      10.5283      96.4653      20.7835     129.9013
      2.4248      22.6112     133.8094      11.2483      98.5084      22.6112     133.8094
      2.4449      24.7031     138.0165      12.0528     100.6798      24.7031     138.0165
      2.4649      27.1137     142.5544      12.9564     102.9919      27.1136     142.5544
      2.4850      29.9120     147.4575      13.9769     105.4588      29.9119     147.4575
      2.5050      33.1862     152.7624      15.1368     108.0963      33.1862     152.7625
      2.5250      37.0503     158.5058      16.4640     110.9214      37.0502     158.5058
      2.5451      41.6525     164.7205      17.9937     113.9532      41.6525     164.7207
      2.5651      47.1874     171.4288      19.7709     117.2115      47.1874     171.4291
      2.5852      53.9111     178.6283      21.8536     120.7166      53.9112     178.6288
      2.6052      62.1605     186.2673      24.3168     124.4872      62.1608     186.2681
      2.6253      72.3742     194.2004      27.2588     128.5366      72.3751     194.2019
      2.6453      85.1059     202.1111      30.8086     132.8666      85.1083     202.1135
      2.6653     101.0057     209.3829      35.1354     137.4545     101.0115     209.3859
      2.6854     120.7105     214.9086      40.4583     142.2317     120.7239     214.9100
      2.7054     144.5326     216.8797      47.0526     147.0452     144.5590     216.8704
      2.7255     171.8064     212.7588      55.2379     151.5944     171.8447     212.7139
      2.7455     199.9946     199.9266      65.3202     155.3417     200.0043     199.8055
      2.7655     224.4132     177.4212      77.4317     157.4196     224.2701     177.2308
      2.7856     239.9587     147.8103      91.2129     156.6511     239.5309     147.7598
      2.8056     244.2263     116.6589     105.4214     151.9218     243.7112     117.1367
      2.8257     238.7016      89.5422     117.9576     143.0524     238.7691      90.5650
      2.8457     227.3475      69.8494     126.9431     131.4979     228.4389      70.6395
      2.8657     214.9053      58.2388     132.1993     119.5381     216.4956      57.8885
      2.8858     205.3914      52.7442     135.0780     108.3409     206.3698      51.1656
      2.9058     200.7821      49.6574     136.5352      97.4010     200.3648      47.6568
      2.9259     200.3876      44.9735     135.9558      86.1174     198.6182      43.6841
      2.9459     200.9862      36.0771     132.2261      75.4211     198.7235      36.2841
      2.9659     198.1971      23.4587     125.6515      67.2980     196.6190      25.0722
      2.9860     189.3559      10.9205     118.1668      62.8486     189.1433      13.0410
      3.0060     175.5601       2.9299     111.7873      61.4017     176.5230       4.5975
      3.0261     160.3951       1.5843     107.3079      61.2619     161.8954       2.3789
      3.0461     147.2186       6.2980     104.0922      60.9304     148.7120       6.2843
      3.0661     137.9342      15.3206     100.7108      60.0529     139.1360      14.7400
      3.0862     133.2919      26.9449      96.1265      59.6029     134.1028      26.0253
      3.1062     133.5482      39.8659      90.5560      60.9757     133.9520      38.7723
      3.1263     138.9234      53.0568      85.1306      64.8713     138.9246      51.9068
      3.1463     149.8067      65.4844      80.9720      71.1040     149.4050      64.3772
      3.1663     166.7579      75.7453      78.7400      79.0933     165.9469      74.7941
      3.1864     190.2650      81.6554      78.7196      88.2851     189.0547      81.0171
      3.2064     220.0701      79.8726      81.0536      98.2846     218.5429      79.7628
      3.2265     253.8696      66.0189      85.9130     108.8227     252.2703      66.6708
      3.2465     285.7139      36.2653      93.5953     119.6663     284.5128      37.7685
      3.2665     306.1042      -8.9726     104.5768     130.5052     305.8599      -6.9201
      3.2866     306.4930     -61.8176     119.5365     140.8027     307.4349     -59.9424
      3.3066     285.9619    -109.7641     139.3271     149.5784     287.7005    -108.7720
      3.3267     251.9879    -143.6797     164.8099     155.0922     253.7929    -143.7705
      3.3467     214.2089    -161.9687     196.3750     154.4700     215.5075    -162.8400
      3.3667     179.0967    -168.0220     232.8825     143.5554     179.6898    -169.1879
      3.3868     149.2405    -166.2354     270.0180     117.7924     149.2366    -167.2981
      3.4068     124.8886    -160.0317     299.2856      75.2133     124.5320    -160.7955
      3.4269     105.3756    -151.6017     310.5927      20.6385     104.8926    -152.0502
      3.4469      89.8415    -142.2433     299.0992     -34.0793      89.3700    -142.4489
      3.4669      77.4841    -132.6971     269.4850     -77.0163      77.0817    -132.7451
      3.4870      67.6276    -123.3633     231.7968    -103.2220      67.3057    -123.3194
      3.5070      59.7322    -114.4360     194.5661    -114.5885      59.4829    -114.3426
      3.5271      53.3804    -105.9896     162.1432    -115.6626      53.1907    -105.8714
      3.5471      48.2556     -98.0317     135.6686    -110.6195      48.1131     -97.9025
      3.5671      44.1202     -90.5351     114.7214    -102.3533      44.0149     -90.4019
     3.58717     40.79770    -83.45530     98.38322    -92.61246     40.72218    -83.32168
     3.60721     38.15865    -76.74080     85.72189    -82.36872     38.10752    -76.60805
     3.62725     36.11026    -70.33806     75.95429    -72.12320     36.08003    -70.20644
     3.64729     34.58952    -64.19430     68.47330    -62.10894     34.57819    -64.06359
     3.66733     33.55866    -58.25864     62.82774    -52.40935     33.56552    -58.12827
     3.68737     33.00305    -52.48344     58.69376    -43.02811     33.02862    -52.35285
     3.70741     32.93077    -46.82475     55.84856    -33.92657     32.97689    -46.69378
     3.72745     33.37427    -41.24459     54.15106    -25.04588     33.44424    -41.11357
     3.74749     34.39407    -35.71392     53.52978    -16.31951     34.49292    -35.58451
     3.76753     36.08461    -30.21935     53.97655     -7.68232     36.21948    -30.09536
     3.78758     38.58216    -24.77513     55.54660      0.92098     38.76245    -24.66444
     3.80762     42.07315    -19.44513     58.36369      9.52406     42.31005    -19.36267
     3.82766     46.79871    -14.38089     62.63008     18.11952     47.10287    -14.35358
     3.84770     53.04235     -9.88460     68.63947     26.62522     53.41616     -9.95814
     3.86774     61.07059     -6.50142     76.78536     34.82563     61.49004     -6.74524
     3.88778     70.96974     -5.11632     87.54697     42.27441     71.34899     -5.61359
      3.9078      82.3162      -6.9460     101.4081      48.1514      82.4659      -7.7360
      3.9279      93.7476     -13.1741     118.6260      51.1033      93.3969     -14.1200
      3.9479     102.9118     -24.0407     138.7537      49.2247     101.9182     -24.7179
      3.9679     107.5049     -37.9859     160.0040      40.5350     106.1805     -37.8823
      3.9880     106.8975     -52.2657     179.1139      24.2228     105.9529     -51.3142
      4.0080     102.2716     -64.8512     192.6886       1.8181     102.1973     -63.6234
      4.0281      95.0390     -75.1779     199.2492     -23.6280      95.6582     -74.3603
      4.0481      85.9233     -83.1410     199.1256     -49.8537      86.6799     -82.9467
      4.0681      75.5434     -88.3640     192.3669     -75.6413      76.0597     -88.5576
      4.0882      64.9172     -90.6375     178.5571     -98.9040      65.1491     -90.9252
      4.1082      55.0794     -90.3582     158.8881    -116.5732      55.1334     -90.5936
      4.1283      46.6148     -88.3033     136.6104    -126.8570      46.5905     -88.4587
      4.1483      39.6388     -85.2275     115.0882    -130.3431      39.5917     -85.3196
      4.1683      34.0045     -81.6763      96.2761    -128.9633      33.9579     -81.7275
      4.1884      29.4800     -77.9859      80.7248    -124.6811      29.4410     -78.0128
      4.2084      25.8372     -74.3422      68.2069    -118.9317      25.8068     -74.3554
      4.2285      22.8845     -70.8386      58.2232    -112.6058      22.8614     -70.8442
      4.2485      20.4701     -67.5152      50.2570    -106.2040      20.4527     -67.5168
     4.26854     18.47751    -64.38329     43.86610    -99.98553     18.46452    -64.38277
     4.28858     16.81817    -61.43918     38.69922    -94.07046     16.80840    -61.43764
     4.30862     15.42454    -58.67171     34.48672    -88.50246     15.41713    -58.66970
     4.32866     14.24504    -56.06668     31.02397    -83.28485     14.23937    -56.06455
     4.34870     13.24003    -53.60913     28.15612    -78.40060     13.23565    -53.60700
     4.36874     12.37874    -51.28434     25.76556    -73.82331     12.37534    -51.28233
     4.38878     11.63715    -49.07846     23.76258    -69.52325     11.63447    -49.07658
     4.40882     10.99633    -46.97868     22.07825    -65.47029     10.99421    -46.97696
     4.42886     10.44129    -44.97332     20.65936    -61.63551     10.43960    -44.97173
     4.44890      9.96009    -43.05173     19.46463    -57.99176      9.95873    -43.05028
     4.46894      9.54317    -41.20424     18.46197    -54.51389      9.54207    -41.20290
     4.48898      9.18286    -39.42194     17.62649    -51.17872      9.18197    -39.42071
     4.50902      8.87304    -37.69681     16.93905    -47.96478      8.87231    -37.69566
     4.52906      8.60880    -36.02125     16.38509    -44.85191      8.60821    -36.02018
     4.54910      8.38632    -34.38829     15.95405    -41.82136      8.38584    -34.38729
     4.56914      8.20261    -32.79139     15.63869    -38.85520      8.20222    -32.79045
     4.58918      8.05549    -31.22433     15.43484    -35.93617      8.05518    -31.22343
     4.60922      7.94343    -29.68108     15.34119    -33.04740      7.94318    -29.68023
     4.62926      7.86553    -28.15581     15.35929    -30.17208      7.86535    -28.15499
     4.64930      7.82151    -26.64278     15.49371    -27.29328      7.82138    -26.64198
     4.66934      7.81167    -25.13626     15.75228    -24.39366      7.81160    -25.13548
     4.68938      7.83692    -23.63043     16.14668    -21.45523      7.83690    -23.62965
     4.70942      7.89882    -22.11930     16.69307    -18.45913      7.89884    -22.11854
     4.72946      7.99964    -20.59671     17.41327    -15.38544      7.99972    -20.59594
     4.74950      8.14245    -19.05618     18.33612    -12.21313      8.14259    -19.05541
     4.76954      8.33129    -17.49077     19.49957     -8.92020      8.33149    -17.48997
     4.78958      8.57129    -15.89301     20.95349     -5.48401      8.57157    -15.89222
     4.80962      8.86894    -14.25490     22.76354     -1.88247      8.86932    -14.25408
     4.82966      9.23241    -12.56764     25.01648      1.90379      9.23291    -12.56679
     4.84970      9.67195    -10.82156     27.82748      5.88727      9.67259    -10.82070
     4.86974     10.20042     -9.00605     31.34990     10.06556     10.20126     -9.00519
     4.88978     10.83408     -7.10941     35.78774     14.40699     10.83516     -7.10857
     4.90982     11.59350     -5.11884     41.41034     18.82443     11.59488     -5.11810
     4.92986     12.50489     -3.02049     48.56501     23.12910     12.50665     -3.01994
     4.94990     13.60199     -0.79952     57.67682     26.95172     13.60419     -0.79936
     4.96994     14.92828      1.55903     69.20229     29.61604     14.93089      1.55850
     4.98998     16.54037      4.06934     83.47158     29.96946     16.54313      4.06773
      5.0100      18.5123       6.7427     100.3018      26.2495      18.5146       6.7397
      5.0301      20.9414       9.5835     118.3007      16.2683      20.9424       9.5793
      5.0501      23.9569      12.5829     134.1665      -1.5706      23.9558      12.5784
      5.0701      27.7310      15.7052     143.1366     -26.3348      27.7278      15.7017
      5.0902      32.4911      18.8629     141.6503     -53.4426      32.4869      18.8614
      5.1102      38.5281      21.8725     130.2882     -76.8153      38.5241      21.8730
      5.1303      46.1864      24.3816     113.2479     -92.7301      46.1833      24.3835
      5.1503      55.8071      25.7593      95.0892    -101.0767      55.8053      25.7621
      5.1703      67.5578      24.9622      78.6043    -103.7572      67.5572      24.9651
      5.1904      81.0534      20.4783      64.8036    -102.9071      81.0540      20.4809
      5.2104      94.7613      10.6380      53.6874    -100.1342      94.7628      10.6397
      5.2305     105.6222      -5.3139      44.8676     -96.4561     105.6240      -5.3131
      5.2505     109.9584     -25.6836      37.8859     -92.4585     109.9599     -25.6836
      5.2705     105.9538     -46.1924      32.3340     -88.4571     105.9548     -46.1930
     5.29058     95.25607    -62.47586     27.88366    -84.61091     95.25652    -62.47652
     5.31062     81.51355    -72.68269     24.28197    -80.99127     81.51367    -72.68315
     5.33066     67.85738    -77.47443     21.33758    -77.62281     67.85735    -77.47478
     5.35070     55.89810    -78.50658     18.90629    -74.50528     55.89798    -78.50681
     5.37074     46.06453    -77.31220     16.87906    -71.62632     46.06441    -77.31232
     5.39078     38.20735    -74.95921     15.17317    -68.96829     38.20726    -74.95928
     5.41082     31.98975    -72.09674     13.72525    -66.51201     31.98968    -72.09678
     5.43086     27.06671    -69.08916     12.48633    -64.23836     27.06666    -69.08917
     5.45090     23.14528    -66.12844     11.41828    -62.12943     23.14525    -66.12845
     5.47094     19.99463    -63.30834     10.49107    -60.16879     19.99461    -63.30836
     5.49098     17.43847    -60.66850      9.68091    -58.34171     17.43845    -60.66850
     5.51102     15.34371    -58.21964      8.96874    -56.63498     15.34370    -58.21964
     5.53106     13.61007    -55.95765      8.33919    -55.03689     13.61006    -55.95766
     5.55110     12.16166    -53.87136      7.77978    -53.53708     12.16166    -53.87137
     5.57114     10.94073    -51.94672      7.28025    -52.12638     10.94072    -51.94672
     5.59118      9.90288    -50.16897      6.83218    -50.79662      9.90288    -50.16897
     5.61122      9.01376    -48.52386      6.42855    -49.54066      9.01376    -48.52386
     5.63126      8.24649    -46.99816      6.06351    -48.35205      8.24649    -46.99816
     5.65130      7.57989    -45.57981      5.73215    -47.22515      7.57989    -45.57982
     5.67134      6.99709    -44.25804      5.43030    -46.15487      6.99709    -44.25803
     5.69138      6.48457    -43.02320      5.15443    -45.13674      6.48457    -43.02320
     5.71142      6.03139    -41.86682      4.90153    -44.16662      6.03139    -41.86682
     5.73146      5.62864    -40.78135      4.66901    -43.24091      5.62864    -40.78135
     5.75150      5.26901    -39.76013      4.45464    -42.35634      5.26901    -39.76012
     5.77154      4.94645    -38.79728      4.25650    -41.50998      4.94645    -38.79728
     5.79158      4.65594    -37.88756      4.07291    -40.69912      4.65594    -37.88756
     5.81162      4.39326    -37.02635      3.90240    -39.92134      4.39326    -37.02635
     5.83166      4.15489    -36.20952      3.74369    -39.17447      4.15489    -36.20952
     5.85170      3.93783    -35.43343      3.59567    -38.45651      3.93783    -35.43343
     5.87174      3.73953    -34.69479      3.45734    -37.76562      3.73953    -34.69479
     5.89178      3.55782    -33.99067      3.32782    -37.10013      3.55782    -33.99067
     5.91182      3.39083    -33.31844      3.20633    -36.45854      3.39083    -33.31844
     5.93186      3.23695    -32.67572      3.09220    -35.83943      3.23695    -32.67572
     5.95190      3.09478    -32.06039      2.98479    -35.24152      3.09478    -32.06039
     5.97194      2.96311    -31.47052      2.88355    -34.66359      2.96311    -31.47052
     5.99198      2.84089    -30.90438      2.78800    -34.10461      2.84089    -30.90438
     6.01202      2.72718    -30.36035      2.69767    -33.56350      2.72718    -30.36035
     6.03206      2.62117    -29.83702      2.61219    -33.03936      2.62117    -29.83702
     6.05210      2.52215    -29.33306      2.53118    -32.53132      2.52215    -29.33306
     6.07214      2.42948    -28.84728      2.45431    -32.03854      2.42948    -28.84728
     6.09218      2.34259    -28.37856      2.38128    -31.56033      2.34259    -28.37856
     6.11222      2.26099    -27.92592      2.31184    -31.09594      2.26099    -27.92592
     6.13226      2.18423    -27.48841      2.24572    -30.64472      2.18423    -27.48841
     6.15230      2.11190    -27.06520      2.18271    -30.20609      2.11190    -27.06520
     6.17234      2.04365    -26.65548      2.12260    -29.77944      2.04365    -26.65548
     6.19238      1.97917    -26.25854      2.06520    -29.36428      1.97917    -26.25854
     6.21242      1.91815    -25.87371      2.01034    -28.96007      1.91815    -25.87371
     6.23246      1.86033    -25.50035      1.95787    -28.56637      1.86033    -25.50035
     6.25250      1.80548    -25.13789      1.90762    -28.18271      1.80548    -25.13789
     6.27254      1.75339    -24.78580      1.85948    -27.80870      1.75339    -24.78580
     6.29258      1.70386    -24.44357      1.81331    -27.44394      1.70386    -24.44357
     6.31262      1.65670    -24.11075      1.76901    -27.08805      1.65670    -24.11075
     6.33266      1.61177    -23.78688      1.72647    -26.74068      1.61177    -23.78688
     6.35271      1.56890    -23.47158      1.68558    -26.40152      1.56890    -23.47158
     6.37275      1.52797    -23.16444      1.64625    -26.07025      1.52797    -23.16444
     6.39279      1.48886    -22.86512      1.60841    -25.74656      1.48886    -22.86512
     6.41283      1.45143    -22.57329      1.57198    -25.43019      1.45143    -22.57329
     6.43287      1.41560    -22.28863      1.53687    -25.12088      1.41560    -22.28863
     6.45291      1.38127    -22.01083      1.50302    -24.81836      1.38127    -22.01083
     6.47295      1.34834    -21.73963      1.47037    -24.52239      1.34834    -21.73963
     6.49299      1.31674    -21.47477      1.43886    -24.23276      1.31674    -21.47477
     6.51303      1.28638    -21.21598      1.40843    -23.94924      1.28638    -21.21598
     6.53307      1.25720    -20.96305      1.37903    -23.67163      1.25720    -20.96305
     6.55311      1.22914    -20.71575      1.35060    -23.39974      1.22914    -20.71575
     6.57315      1.20212    -20.47386      1.32311    -23.13336      1.20212    -20.47386
     6.59319      1.17610    -20.23720      1.29652    -22.87235      1.17610    -20.23720
     6.61323      1.15103    -20.00557      1.27077    -22.61651      1.15103    -20.00557
     6.63327      1.12684    -19.77881      1.24584    -22.36569      1.12684    -19.77881
     6.65331      1.10351    -19.55672      1.22168    -22.11972      1.10351    -19.55672
     6.67335      1.08098    -19.33916      1.19826    -21.87847      1.08098    -19.33916
     6.69339      1.05921    -19.12597      1.17555    -21.64178      1.05921    -19.12597
     6.71343      1.03818    -18.91702      1.15352    -21.40953      1.03818    -18.91702
     6.73347      1.01784    -18.71214      1.13214    -21.18158      1.01784    -18.71214
     6.75351      0.99816    -18.51123      1.11139    -20.95780      0.99816    -18.51123
     6.77355      0.97910    -18.31414      1.09123    -20.73809      0.97910    -18.31414
     6.79359      0.96065    -18.12077      1.07165    -20.52232      0.96065    -18.12077
     6.81363      0.94278    -17.93099      1.05262    -20.31037      0.94278    -17.93099
     6.83367      0.92545    -17.74470      1.03412    -20.10215      0.92545    -17.74470
     6.85371      0.90865    -17.56179      1.01613    -19.89755      0.90865    -17.56179
     6.87375      0.89235    -17.38216      0.99863    -19.69650      0.89235    -17.38216
     6.89379      0.87652    -17.20571      0.98160    -19.49885      0.87652    -17.20571
     6.91383      0.86116    -17.03236      0.96503    -19.30454      0.86116    -17.03236
     6.93387      0.84624    -16.86200      0.94889    -19.11349      0.84624    -16.86200
     6.95391      0.83175    -16.69456      0.93317    -18.92560      0.83175    -16.69456
     6.97395      0.81766    -16.52996      0.91786    -18.74080      0.81766    -16.52996
     6.99399      0.80396    -16.36812      0.90293    -18.55901      0.80396    -16.36812
     7.01403      0.79063    -16.20896      0.88839    -18.38013      0.79063    -16.20896
     7.03407      0.77766    -16.05242      0.87420    -18.20413      0.77766    -16.05242
     7.05411      0.76504    -15.89840      0.86037    -18.03090      0.76504    -15.89840
     7.07415      0.75276    -15.74687      0.84688    -17.86040      0.75276    -15.74687
     7.09419      0.74079    -15.59775      0.83371    -17.69254      0.74079    -15.59775
     7.11423      0.72914    -15.45097      0.82087    -17.52728      0.72914    -15.45097
     7.13427      0.71778    -15.30648      0.80833    -17.36454      0.71778    -15.30648
     7.15431      0.70671    -15.16422      0.79608    -17.20427      0.70671    -15.16422
     7.17435      0.69591    -15.02414      0.78412    -17.04640      0.69591    -15.02414
     7.19439      0.68538    -14.88617      0.77244    -16.89089      0.68538    -14.88617
     7.21443      0.67511    -14.75028      0.76103    -16.73768      0.67511    -14.75028
     7.23447      0.66509    -14.61640      0.74987    -16.58672      0.66509    -14.61640
     7.25451      0.65531    -14.48449      0.73897    -16.43796      0.65531    -14.48449
     7.27455      0.64577    -14.35451      0.72832    -16.29135      0.64577    -14.35451
     7.29459      0.63645    -14.22641      0.71790    -16.14683      0.63645    -14.22641
     7.31463      0.62734    -14.10013      0.70771    -16.00436      0.62734    -14.10013
     7.33467      0.61845    -13.97566      0.69774    -15.86391      0.61845    -13.97566
     7.35471      0.60976    -13.85292      0.68799    -15.72540      0.60976    -13.85292
     7.37475      0.60127    -13.73191      0.67845    -15.58884      0.60127    -13.73191
     7.39479      0.59297    -13.61256      0.66911    -15.45415      0.59297    -13.61256
     7.41483      0.58485    -13.49486      0.65997    -15.32130      0.58485    -13.49486
     7.43487      0.57692    -13.37874      0.65102    -15.19026      0.57692    -13.37874
     7.45491      0.56916    -13.26419      0.64226    -15.06099      0.56916    -13.26419
     7.47495      0.56157    -13.15117      0.63368    -14.93343      0.56157    -13.15117
     7.49499      0.55414    -13.03965      0.62528    -14.80758      0.55414    -13.03965
     7.51503      0.54687    -12.92959      0.61705    -14.68338      0.54687    -12.92959
     7.53507      0.53976    -12.82097      0.60899    -14.56080      0.53976    -12.82097
     7.55511      0.53280    -12.71375      0.60109    -14.43983      0.53280    -12.71375
     7.57515      0.52599    -12.60790      0.59335    -14.32041      0.52599    -12.60790
     7.59519      0.51932    -12.50340      0.58576    -14.20252      0.51932    -12.50340
     7.61523      0.51279    -12.40021      0.57832    -14.08613      0.51279    -12.40021
     7.63527      0.50639    -12.29831      0.57103    -13.97120      0.50639    -12.29831
     7.65531      0.50012    -12.19768      0.56388    -13.85772      0.50012    -12.19768
     7.67535      0.49398    -12.09828      0.55687    -13.74565      0.49398    -12.09828
     7.69539      0.48797    -12.00010      0.55000    -13.63496      0.48797    -12.00010
     7.71543      0.48208    -11.90310      0.54326    -13.52565      0.48208    -11.90310
     7.73547      0.47630    -11.80727      0.53665    -13.41765      0.47630    -11.80727
     7.75551      0.47064    -11.71258      0.53016    -13.31097      0.47064    -11.71258
     7.77555      0.46510    -11.61900      0.52380    -13.20557      0.46510    -11.61900
     7.79559      0.45966    -11.52653      0.51755    -13.10142      0.45966    -11.52653
     7.81563      0.45433    -11.43512      0.51142    -12.99851      0.45433    -11.43512
     7.83567      0.44911    -11.34477      0.50541    -12.89682      0.44911    -11.34477
     7.85571      0.44399    -11.25545      0.49951    -12.79630      0.44399    -11.25545
     7.87575      0.43897    -11.16715      0.49372    -12.69697      0.43897    -11.16715
     7.89579      0.43404    -11.07983      0.48804    -12.59877      0.43404    -11.07983
     7.91583      0.42921    -10.99349      0.48246    -12.50171      0.42921    -10.99349
     7.93587      0.42448    -10.90811      0.47698    -12.40574      0.42448    -10.90811
     7.95591      0.41984    -10.82366      0.47160    -12.31085      0.41984    -10.82366
     7.97595      0.41529    -10.74013      0.46633    -12.21703      0.41529    -10.74013
     7.99599      0.41082    -10.65750      0.46114    -12.12426      0.41082    -10.65750
     8.01603      0.40644    -10.57575      0.45605    -12.03251      0.40644    -10.57575
     8.03607      0.40215    -10.49487      0.45106    -11.94178      0.40215    -10.49487
     8.05611      0.39794    -10.41484      0.44615    -11.85203      0.39794    -10.41484
     8.07615      0.39381    -10.33564      0.44134    -11.76325      0.39381    -10.33564
     8.09619      0.38977    -10.25726      0.43661    -11.67542      0.38977    -10.25726
     8.11623      0.38580    -10.17968      0.43196    -11.58853      0.38580    -10.17968
     8.13627      0.38190    -10.10289      0.42740    -11.50257      0.38190    -10.10289
     8.15631      0.37809    -10.02686      0.42293    -11.41750      0.37809    -10.02686
     8.17635      0.37435     -9.95160      0.41853    -11.33332      0.37435     -9.95160
     8.19639      0.37068     -9.87706      0.41421    -11.25001      0.37068     -9.87706
     8.21643      0.36709     -9.80326      0.40998    -11.16756      0.36709     -9.80326
     8.23647      0.36357     -9.73017      0.40582    -11.08595      0.36357     -9.73017
     8.25651      0.36012     -9.65778      0.40173    -11.00516      0.36012     -9.65778
     8.27655      0.35674     -9.58606      0.39773    -10.92518      0.35674     -9.58606
     8.29659      0.35344     -9.51502      0.39379    -10.84599      0.35344     -9.51502
     8.31663      0.35020     -9.44463      0.38993    -10.76759      0.35020     -9.44463
     8.33667      0.34703     -9.37489      0.38615    -10.68995      0.34703     -9.37489
     8.35671      0.34392     -9.30577      0.38243    -10.61305      0.34392     -9.30577
     8.37675      0.34089     -9.23726      0.37879    -10.53689      0.34089     -9.23726
     8.39679      0.33792     -9.16936      0.37521    -10.46147      0.33792     -9.16936
     8.41683      0.33502     -9.10204      0.37171    -10.38674      0.33502     -9.10204
     8.43687      0.33219     -9.03530      0.36828    -10.31271      0.33219     -9.03530
     8.45691      0.32942     -8.96912      0.36491    -10.23936      0.32942     -8.96912
     8.47695      0.32672     -8.90349      0.36162    -10.16668      0.32672     -8.90349
     8.49699      0.32409     -8.83839      0.35839    -10.09464      0.32409     -8.83839
     8.51703      0.32152     -8.77381      0.35523    -10.02326      0.32152     -8.77381
    8.537074     0.319021    -8.709743     0.352143    -9.952497     0.319021    -8.709743
    8.557114     0.316590    -8.646172     0.349123    -9.882345     0.316590    -8.646172
    8.577154     0.314228    -8.583077     0.346172    -9.812791     0.314228    -8.583077
    8.597194     0.311935    -8.520452     0.343291    -9.743828     0.311935    -8.520452
    8.617234     0.309711    -8.458282     0.340480    -9.675430     0.309711    -8.458282
    8.637274     0.307559    -8.396554     0.337739    -9.607592     0.307559    -8.396554
    8.657314     0.305479    -8.335249     0.335071    -9.540298     0.305479    -8.335249
    8.677354     0.303472    -8.274358     0.332475    -9.473537     0.303472    -8.274358
    8.697394     0.301540    -8.213861     0.329953    -9.407291     0.301540    -8.213861
    8.717434     0.299686    -8.153752     0.327507    -9.341539     0.299686    -8.153752
    8.737474     0.297910    -8.094007     0.325137    -9.276276     0.297910    -8.094007
    8.757514     0.296214    -8.034615     0.322847    -9.211481     0.296214    -8.034615
    8.777555     0.294603    -7.975554     0.320639    -9.147141     0.294603    -7.975554
    8.797595     0.293078    -7.916821     0.318514    -9.083245     0.293078    -7.916821
    8.817636     0.291642    -7.858385     0.316476    -9.019767     0.291642    -7.858385
    8.837675     0.290299    -7.800236     0.314529    -8.956697     0.290299    -7.800236
    8.857716     0.289054    -7.742351     0.312675    -8.894012     0.289054    -7.742351
    8.877755     0.287910    -7.684715     0.310921    -8.831701     0.287910    -7.684715
    8.897796     0.286872    -7.627307     0.309269    -8.769734     0.286872    -7.627307
    8.917835     0.285946    -7.570105     0.307727    -8.708107     0.285946    -7.570105
    8.937876     0.285138    -7.513089     0.306301    -8.646784     0.285138    -7.513089
    8.957915     0.284456    -7.456236     0.304997    -8.585750     0.284456    -7.456236
    8.977956     0.283906    -7.399516     0.303824    -8.524974     0.283906    -7.399516
    8.997995     0.283497    -7.342911     0.302792    -8.464441     0.283497    -7.342911
    9.018035     0.283239    -7.286391     0.301912    -8.404118     0.283239    -7.286391
    9.038075     0.283143    -7.229924     0.301195    -8.343980     0.283143    -7.229924
    9.058115     0.283222    -7.173485     0.300655    -8.283994     0.283222    -7.173485
    9.078156     0.283488    -7.117032     0.300310    -8.224123     0.283488    -7.117032
    9.098196     0.283958    -7.060538     0.300177    -8.164339     0.283958    -7.060538
    9.118237     0.284649    -7.003958     0.300279    -8.104602     0.284649    -7.003958
    9.138276     0.285581    -6.947253     0.300640    -8.044858     0.285581    -6.947253
    9.158317     0.286777    -6.890375     0.301290    -7.985071     0.286777    -6.890377
    9.178356     0.288263    -6.833282     0.302262    -7.925192     0.288263    -6.833282
    9.198397     0.290069    -6.775908     0.303597    -7.865150     0.290069    -6.775908
    9.218436     0.292228    -6.718205     0.305342    -7.804900     0.292228    -6.718205
    9.238477     0.294780    -6.660101     0.307552    -7.744358     0.294780    -6.660101
    9.258516     0.297770    -6.601531     0.310294    -7.683453     0.297770    -6.601531
    9.278557     0.301250    -6.542409     0.313647    -7.622091     0.301250    -6.542409
    9.298596     0.305282    -6.482653     0.317707    -7.560183     0.305282    -6.482653
    9.318637     0.309937    -6.422163     0.322589    -7.497611     0.309937    -6.422162
    9.338676     0.315299    -6.360834     0.328434    -7.434257     0.315299    -6.360834
    9.358717     0.321468    -6.298540     0.335416    -7.369973     0.321467    -6.298540
    9.378757     0.328559    -6.235150     0.343747    -7.304607     0.328559    -6.235151
    9.398798     0.336715    -6.170509     0.353694    -7.237984     0.336715    -6.170509
    9.418838     0.346102    -6.104448     0.365592    -7.169908     0.346102    -6.104448
    9.438877     0.356925    -6.036772     0.379863    -7.100155     0.356924    -6.036772
    9.458918     0.369429    -5.967260     0.397051    -7.028494     0.369428    -5.967260
    9.478957     0.383916    -5.895671     0.417853    -6.954691     0.383915    -5.895671
    9.498998     0.400758    -5.821720     0.443178    -6.878496     0.400758    -5.821720
    9.519037     0.420416    -5.745101     0.474216    -6.799730     0.420415    -5.745103
    9.539078     0.443469    -5.665456     0.512544    -6.718291     0.443468    -5.665456
    9.559117     0.470645    -5.582403     0.560248    -6.634300     0.470643    -5.582403
    9.579158     0.502874    -5.495512     0.620100    -6.548323     0.502873    -5.495512
    9.599197     0.541349    -5.404341     0.695733    -6.461728     0.541346    -5.404341
    9.619238     0.587619    -5.308438     0.791798    -6.377338     0.587616    -5.308438
    9.639277     0.643704    -5.207413     0.913846    -6.300613     0.643700    -5.207411
    9.659318     0.712274    -5.101002     1.067548    -6.241336     0.712268    -5.100998
    9.679358     0.796849    -4.989283     1.256118    -6.215858     0.796842    -4.989279
    9.699399     0.902110    -4.872961     1.474542    -6.248279     0.902100    -4.872952
    9.719439     1.034195    -4.753977     1.699968    -6.366243     1.034184    -4.753963
    9.739479     1.201021    -4.636497     1.884555    -6.584743     1.201012    -4.636470
    9.759519     1.412221    -4.528666     1.967468    -6.880711     1.412220    -4.528624
    9.779559     1.678225    -4.445283     1.914114    -7.186964     1.678252    -4.445221
    9.799599     2.006890    -4.411354     1.746237    -7.429704     2.006967    -4.411292
    9.819639     2.395837    -4.464912     1.522415    -7.573848     2.395983    -4.464900
    9.839679     2.818644    -4.654160     1.296052    -7.627203     2.818809    -4.654268
    9.859718     3.209416    -5.019740     1.095927    -7.616364     3.209471    -5.019965
    9.879759     3.464349    -5.556349     0.930504    -7.567053     3.464227    -5.556560
    9.899798     3.488348    -6.177722     0.797922    -7.497554     3.488133    -6.177788
    9.919839     3.268235    -6.743632     0.692778    -7.419072     3.268065    -6.743565
    9.939879     2.886661    -7.147235     0.609375    -7.337951     2.886584    -7.147120
    9.959920     2.455104    -7.366464     0.542808    -7.257552     2.455095    -7.366365
    9.979959     2.051316    -7.438766     0.489201    -7.179536     2.051340    -7.438700
    10.00000      1.70811     -7.41576      0.44558     -7.10460      1.70814     -7.41572
# 
# 04/10/2017 at 17:09 YAMBO_RT @ anomaly [start]
# 04/10/2017 at 17:09                    [end]
#  
# Timing   [Min/Max/Average]: 02s/02s/02s
#
# .-Input file : yambo.in
# | optics                       # [R OPT] Optics
# | bse                          # [R BSE] Bethe Salpeter Equation.
# | bsk                          # [R BSK] Bethe Salpeter Equation kernel
# | bss                          # [R BSS] Bethe Salpeter Equation solver
# | em1s                         # [R Xs] Static Inverse Dielectric Matrix
# | BoseTemp= 0.000000     eV    # Bosonic Temperature
# | FFTGvecs=  387         RL    # [FFT] Plane-waves
# | X_Threads= 1                 # [OPENMP/X] Number of threads for response functions
# | DIP_Threads= 1               # [OPENMP/X] Number of threads for dipoles
# | K_Threads= 1                 # [OPENMP/BSK] Number of threads for response functions
# | Chimod= "hartree"            # [X] IP/Hartree/ALDA/LRC/BSfxc
# | BSEmod= "retarded"           # [BSE] resonant/retarded/coupling
# | BSKmod= "SEX"                # [BSE] IP/Hartree/HF/ALDA/SEX/BSfxc
# | BSSmod= "h"                  # [BSS] (h)aydock/(d)iagonalization/(i)nversion/(t)ddft`
# | BSENGexx=  531         RL    # [BSK] Exchange components
# | BSENGBlk=  59          RL    # [BSK] Screened interaction block size
# | #WehCpl                      # [BSK] eh interaction included also in coupling
# | KfnQPdb= "E < 08_ypp_gw_10fs_Xonly/ndb.QP" # [EXTQP BSK BSS] Database
# | % BEnRange
# |   0.00000 | 10.00000 | eV    # [BSS] Energy range
# | %
# | % BDmRange
# |   0.10000 |  0.10000 | eV    # [BSS] Damping range
# | %
# | BEnSteps=  500               # [BSS] Energy steps
# | % BLongDir
# | 0.1000E-4 | 0.000    | 0.000    |        # [BSS] [cc] Electric Field
# | %
# | % BSEBands
# |   2 |  7 |                   # [BSK] Bands range
# | %
# | BSHayTrs=  0.02000           # [BSS] Relative [o/o] Haydock treshold. Strict(>0)/Average(<0)
# | XfnRTdb= "f @ 0.1 ps < 04_elel+elph_0K/ndb.RT_carriers" # [EXTRT Xd] Database
# | % BndsRnXs
# |   1 |  8 |                   # [Xs] Polarization function bands
# | %
# | NGsBlkXs=  59          RL    # [Xs] Response block size
# | GrFnTpXs= "R"                # [Xs] Green`s function (T)ordered,(R)etarded,(r)senant,(a)ntiresonant [T, R, r, Ta, Ra]
# | % DmRngeXs
# |   0.10000 |  0.10000 | eV    # [Xs] Damping range
# | %
# | % LongDrXs
# | 0.1000E-4 | 0.000    | 0.000    |        # [Xs] [cc] Electric Field
# | %
