#                                                           
# :::   :::   :::     ::::    ::::  :::::::::   ::::::::    
# :+:   :+: :+: :+:   +:+:+: :+:+:+ :+:    :+: :+:    :+:   
#  +:+ +:+ +:+   +:+  +:+ +:+:+ +:+ +:+    +:+ +:+    +:+   
#   +#++: +#++:++#++: +#+  +:+  +#+ +#++:++#+  +#+    +:+   
#    +#+  +#+     +#+ +#+       +#+ +#+    +#+ +#+    +#+   
#    #+#  #+#     #+# #+#       #+# #+#    #+# #+#    #+#   
#    ###  ###     ### ###       ### #########   ########    
#                                                           
#                                                           
#        Version 4.2.0 Revision 14428 Hash 698a636          
#                  MPI+SLK+OpenMP Build                     
#                http://www.yambo-code.org                  
#
# Absorption @ Q(1) [q->0 direction] :0.1000E-4  0.000     0.000   
#
#
# - Energies      are GoWo Plasmon Pole appox.
# - Wavefunctions are Slater exchange(X)+Perdew & Zunger(C)
#
# - The Green`s function is Retarded -
# - Using the Length Gauge -
# - [r,Vnl] *is* included -
#
#   BSK|Identifier              :7981
#      |Dimension               :100
#      |Bands                   :2 - 7
#      |Exchange           [res]: yes
#      |Correlation        [res]: yes
#      |Kernel`s coupling       : no
#      |Exchange           [cpl]: no
#      |Correlation        [cpl]: no
#      |W interaction is bare   : no
#      |ALDA kernel in R-space  : no
#      |RL vectors    [exchange]:531
#      |RL vectors [correlation]:59
#      |E/h energy range    [ev]:-1.000000 - -1.000000
#      |Coupling range     [o/o]: 100.0000 -  100.0000
#    W |Interaction is diagonal : no
#      |Matrix size             :59
#      |Bands                   :1 - 8
#      |e/h energy range    [ev]:-1.000000 - -1.000000
#      |Poles              [o/o]: 100.0000
#      |RL vectors in the sum   :387
#      |[r,Vnl] included        : yes
#      |Field direction         :0.1000E-4  0.000000  0.000000
#      |Coulomb Cutoff          :none
#      |xc-Kernel               :none
#   RIM|RL components      [col]:0
#      |Random points      [col]:0
#  
#   Haydock|Accuracy (requested) [o/o]:  0.02000
#          |Accuracy (reached)   [o/o]:   0.0020
#          |Iteration                 :18
#
#    E/ev[1]      EPS-Im[2]    EPS-Re[3]    EPSo-Im[4]   EPSo-Re[5]   EPS`-Im[6]   EPS`-Re[7]
#
     0.00000      0.00000     46.37360      0.00000     41.44965      0.00000     46.37360
   0.2004E-1    0.1415E-1     46.38       0.1015E-1     41.45       0.1415E-1     46.38   
   0.4008E-1    0.2830E-1     46.38       0.2030E-1     41.45       0.2830E-1     46.38   
   0.6012E-1    0.4246E-1     46.39       0.3045E-1     41.46       0.4246E-1     46.39   
   0.8016E-1    0.5664E-1     46.40       0.4062E-1     41.47       0.5664E-1     46.40   
     0.10020      0.07085     46.40895      0.05080     41.47502      0.07085     46.40895
     0.12024      0.08508     46.42452      0.06099     41.48622      0.08508     46.42452
     0.14028      0.09934     46.44294      0.07121     41.49943      0.09934     46.44294
     0.16032      0.11364     46.46421      0.08145     41.51468      0.11364     46.46421
     0.18036      0.12799     46.48834      0.09171     41.53198      0.12799     46.48834
     0.20040      0.14239     46.51534      0.10201     41.55133      0.14239     46.51534
     0.22044      0.15684     46.54522      0.11234     41.57276      0.15684     46.54522
     0.24048      0.17136     46.57800      0.12270     41.59625      0.17136     46.57800
     0.26052      0.18594     46.61368      0.13311     41.62179      0.18594     46.61368
     0.28056      0.20060     46.65229      0.14356     41.64944      0.20060     46.65229
     0.30060      0.21534     46.69382      0.15405     41.67917      0.21534     46.69382
     0.32064      0.23017     46.73831      0.16460     41.71102      0.23017     46.73831
     0.34068      0.24509     46.78577      0.17520     41.74499      0.24509     46.78577
     0.36072      0.26010     46.83622      0.18586     41.78107      0.26010     46.83622
     0.38076      0.27523     46.88968      0.19658     41.81927      0.27523     46.88968
     0.40080      0.29046     46.94616      0.20737     41.85965      0.29046     46.94616
     0.42084      0.30581     47.00571      0.21823     41.90216      0.30581     47.00571
     0.44088      0.32129     47.06833      0.22916     41.94688      0.32129     47.06833
     0.46092      0.33690     47.13405      0.24017     41.99375      0.33690     47.13405
     0.48096      0.35265     47.20290      0.25126     42.04286      0.35265     47.20290
     0.50100      0.36855     47.27491      0.26243     42.09418      0.36855     47.27491
     0.52104      0.38460     47.35011      0.27370     42.14774      0.38460     47.35011
     0.54108      0.40081     47.42853      0.28505     42.20355      0.40081     47.42853
     0.56112      0.41719     47.51020      0.29651     42.26166      0.41719     47.51020
     0.58116      0.43375     47.59517      0.30807     42.32211      0.43375     47.59517
     0.60120      0.45049     47.68345      0.31974     42.38478      0.45049     47.68345
     0.62124      0.46743     47.77509      0.33152     42.44984      0.46743     47.77509
     0.64128      0.48457     47.87013      0.34342     42.51729      0.48457     47.87013
     0.66132      0.50192     47.96862      0.35543     42.58708      0.50192     47.96862
     0.68136      0.51949     48.07058      0.36758     42.65936      0.51949     48.07058
     0.70140      0.53728     48.17608      0.37986     42.73399      0.53728     48.17608
     0.72144      0.55532     48.28514      0.39227     42.81111      0.55532     48.28514
     0.74148      0.57361     48.39783      0.40483     42.89077      0.57361     48.39783
     0.76152      0.59215     48.51420      0.41753     42.97292      0.59215     48.51420
     0.78156      0.61097     48.63430      0.43039     43.05761      0.61097     48.63430
     0.80160      0.63006     48.75817      0.44341     43.14488      0.63006     48.75817
     0.82164      0.64945     48.88588      0.45659     43.23477      0.64945     48.88588
     0.84168      0.66913     49.01748      0.46994     43.32732      0.66913     49.01748
     0.86172      0.68914     49.15303      0.48348     43.42258      0.68914     49.15303
     0.88176      0.70947     49.29261      0.49719     43.52050      0.70947     49.29261
     0.90180      0.73013     49.43628      0.51110     43.62121      0.73013     49.43628
     0.92184      0.75115     49.58410      0.52521     43.72472      0.75115     49.58410
     0.94188      0.77254     49.73615      0.53952     43.83104      0.77254     49.73615
     0.96192      0.79431     49.89250      0.55405     43.94025      0.79431     49.89250
     0.98196      0.81647     50.05322      0.56879     44.05239      0.81647     50.05322
     1.00200      0.83905     50.21840      0.58377     44.16746      0.83905     50.21840
     1.02204      0.86205     50.38811      0.59898     44.28559      0.86205     50.38811
     1.04208      0.88549     50.56247      0.61443     44.40673      0.88549     50.56247
     1.06212      0.90939     50.74152      0.63014     44.53102      0.90939     50.74152
     1.08216      0.93377     50.92539      0.64611     44.65843      0.93377     50.92539
     1.10220      0.95865     51.11416      0.66236     44.78908      0.95865     51.11416
     1.12224      0.98404     51.30793      0.67888     44.92300      0.98404     51.30793
     1.14228      1.00996     51.50681      0.69570     45.06025      1.00996     51.50681
     1.16232      1.03644     51.71091      0.71282     45.20086      1.03644     51.71091
     1.18236      1.06350     51.92033      0.73025     45.34490      1.06350     51.92033
     1.20240      1.09116     52.13519      0.74801     45.49247      1.09116     52.13519
     1.22244      1.11944     52.35563      0.76610     45.64364      1.11944     52.35563
     1.24248      1.14837     52.58175      0.78454     45.79841      1.14837     52.58175
     1.26252      1.17798     52.81370      0.80334     45.95689      1.17798     52.81370
     1.28257      1.20828     53.05159      0.82252     46.11916      1.20828     53.05159
     1.30261      1.23932     53.29559      0.84208     46.28531      1.23932     53.29559
     1.32265      1.27111     53.54583      0.86204     46.45537      1.27111     53.54583
     1.34269      1.30369     53.80247      0.88242     46.62945      1.30369     53.80247
     1.36273      1.33710     54.06567      0.90323     46.80764      1.33710     54.06567
     1.38277      1.37136     54.33559      0.92449     46.99001      1.37136     54.33559
     1.40281      1.40651     54.61239      0.94621     47.17664      1.40651     54.61239
     1.42285      1.44259     54.89628      0.96841     47.36765      1.44259     54.89628
     1.44289      1.47963     55.18742      0.99111     47.56317      1.47963     55.18742
     1.46293      1.51768     55.48602      1.01433     47.76321      1.51768     55.48602
     1.48297      1.55679     55.79227      1.03808     47.96793      1.55679     55.79227
     1.50301      1.59699     56.10639      1.06240     48.17743      1.59699     56.10639
     1.52305      1.63834     56.42861      1.08729     48.39185      1.63834     56.42861
     1.54309      1.68087     56.75914      1.11279     48.61125      1.68087     56.75914
     1.56313      1.72466     57.09822      1.13892     48.83580      1.72466     57.09822
     1.58317      1.76975     57.44611      1.16569     49.06562      1.76975     57.44611
     1.60321      1.81620     57.80308      1.19314     49.30082      1.81620     57.80308
     1.62325      1.86407     58.16939      1.22130     49.54152      1.86407     58.16939
     1.64329      1.91343     58.54533      1.25019     49.78791      1.91343     58.54533
     1.66333      1.96435     58.93119      1.27984     50.04012      1.96435     58.93119
     1.68337      2.01690     59.32730      1.31029     50.29829      2.01690     59.32730
     1.70341      2.07116     59.73397      1.34157     50.56258      2.07116     59.73397
     1.72345      2.12721     60.15155      1.37370     50.83317      2.12721     60.15155
     1.74349      2.18514     60.58039      1.40674     51.11020      2.18514     60.58039
     1.76353      2.24504     61.02087      1.44071     51.39388      2.24504     61.02087
     1.78357      2.30701     61.47339      1.47566     51.68444      2.30701     61.47339
     1.80361      2.37116     61.93835      1.51163     51.98202      2.37116     61.93835
     1.82365      2.43759     62.41616      1.54867     52.28680      2.43759     62.41616
     1.84369      2.50640     62.90731      1.58682     52.59908      2.50640     62.90731
     1.86373      2.57772     63.41224      1.62613     52.91901      2.57772     63.41224
     1.88377      2.65166     63.93149      1.66666     53.24688      2.65166     63.93149
     1.90381      2.72836     64.46559      1.70847     53.58287      2.72836     64.46559
     1.92385      2.80798     65.01512      1.75160     53.92725      2.80798     65.01512
     1.94389      2.89070     65.58067      1.79613     54.28031      2.89070     65.58067
     1.96393      2.97669     66.16284      1.84213     54.64235      2.97669     66.16284
     1.98397      3.06614     66.76230      1.88966     55.01366      3.06614     66.76230
     2.00401      3.15925     67.37970      1.93879     55.39447      3.15925     67.37970
     2.02405      3.25623     68.01580      1.98961     55.78517      3.25623     68.01580
     2.04409      3.35730     68.67134      2.04221     56.18609      3.35730     68.67134
     2.06413      3.46271     69.34717      2.09667     56.59757      3.46271     69.34717
     2.08417      3.57271     70.04411      2.15309     57.02003      3.57271     70.04411
     2.10421      3.68759     70.76309      2.21157     57.45377      3.68759     70.76309
     2.12425      3.80764     71.50507      2.27223     57.89928      3.80764     71.50507
     2.14429      3.93320     72.27110      2.33518     58.35696      3.93320     72.27110
     2.16433      4.06461     73.06225      2.40053     58.82729      4.06461     73.06225
     2.18437      4.20226     73.87968      2.46844     59.31075      4.20226     73.87968
     2.20441      4.34656     74.72464      2.53905     59.80782      4.34656     74.72464
     2.22445      4.49795     75.59843      2.61249     60.31908      4.49795     75.59843
     2.24449      4.65693     76.50246      2.68896     60.84502      4.65693     76.50246
     2.26453      4.82402     77.43819      2.76861     61.38630      4.82402     77.43819
     2.28457      4.99980     78.40729      2.85164     61.94355      4.99980     78.40729
     2.30461      5.18490     79.41142      2.93826     62.51748      5.18490     79.41142
     2.32465      5.37999     80.45242      3.02869     63.10868      5.37999     80.45242
     2.34469      5.58585     81.53224      3.12318     63.71805      5.58585     81.53224
     2.36473      5.80327     82.65301      3.22197     64.34628      5.80327     82.65301
     2.38477      6.03318     83.81698      3.32536     64.99427      6.03318     83.81698
     2.40481      6.27656     85.02660      3.43365     65.66296      6.27656     85.02660
     2.42485      6.53450     86.28447      3.54718     66.35326      6.53450     86.28447
     2.44489      6.80822     87.59344      3.66630     67.06625      6.80822     87.59344
     2.46493      7.09904     88.95656      3.79141     67.80296      7.09904     88.95656
     2.48497      7.40846     90.37714      3.92294     68.56466      7.40846     90.37714
     2.50501      7.73811     91.85876      4.06137     69.35255      7.73811     91.85876
     2.52505      8.08984     93.40535      4.20720     70.16801      8.08984     93.40535
     2.54509      8.46568     95.02110      4.36102     71.01245      8.46568     95.02110
     2.56513      8.86792     96.71062      4.52344     71.88747      8.86792     96.71063
     2.58517      9.29913     98.47897      4.69515     72.79473      9.29913     98.47897
      2.6052       9.7622     100.3316       4.8769      73.7360       9.7622     100.3316
      2.6253      10.2604     102.2746       5.0696      74.7133      10.2604     102.2746
      2.6453      10.7974     104.3144       5.2741      75.7287      10.7974     104.3144
      2.6653      11.3773     106.4585       5.4914      76.7845      11.3773     106.4585
      2.6854      12.0050     108.7146       5.7228      77.8831      12.0050     108.7146
      2.7054      12.6859     111.0917       5.9695      79.0272      12.6859     111.0917
      2.7255      13.4263     113.5995       6.2330      80.2199      13.4263     113.5995
      2.7455      14.2332     116.2488       6.5149      81.4641      14.2332     116.2488
      2.7655      15.1150     119.0515       6.8171      82.7635      15.1150     119.0515
      2.7856      16.0813     122.0211       7.1417      84.1217      16.0813     122.0211
      2.8056      17.1434     125.1724       7.4910      85.5431      17.1434     125.1724
      2.8257      18.3144     128.5221       7.8678      87.0322      18.3144     128.5221
      2.8457      19.6098     132.0889       8.2751      88.5940      19.6098     132.0889
      2.8657      21.0477     135.8938       8.7166      90.2341      21.0477     135.8938
      2.8858      22.6501     139.9602       9.1963      91.9587      22.6501     139.9602
      2.9058      24.4429     144.3150       9.7190      93.7746      24.4429     144.3150
      2.9259      26.4575     148.9883      10.2903      95.6896      26.4575     148.9883
      2.9459      28.7318     154.0139      10.9167      97.7119      28.7318     154.0139
      2.9659      31.3122     159.4304      11.6059      99.8511      31.3122     159.4304
      2.9860      34.2557     165.2812      12.3669     102.1178      34.2557     165.2812
      3.0060      37.6329     171.6152      13.2106     104.5238      37.6328     171.6152
      3.0261      41.5317     178.4874      14.1499     107.0824      41.5317     178.4874
      3.0461      46.0634     185.9588      15.2004     109.8087      46.0634     185.9588
      3.0661      51.3689     194.0960      16.3812     112.7196      51.3689     194.0960
      3.0862      57.6292     202.9701      17.7155     115.8339      57.6291     202.9701
      3.1062      65.0781     212.6528      19.2321     119.1728      65.0781     212.6529
      3.1263      74.0214     223.2104      20.9668     122.7599      74.0214     223.2105
      3.1463      84.8609     234.6893      22.9647     126.6217      84.8609     234.6894
      3.1663      98.1283     247.0913      25.2828     130.7864      98.1284     247.0915
      3.1864     114.5293     260.3282      27.9940     135.2843     114.5295     260.3283
      3.2064     134.9947     274.1375      31.1927     140.1456     134.9949     274.1377
      3.2265     160.7332     287.9355      35.0021     145.3978     160.7334     287.9356
      3.2465     193.2446     300.5598      39.5834     151.0598     193.2450     300.5598
      3.2665     234.2113     309.8531      45.1501     157.1307     234.2119     309.8531
      3.2866     285.0437     312.0680      51.9839     163.5705     285.0443     312.0677
      3.3066     345.7055     301.2900      60.4547     170.2635     345.7064     301.2894
      3.3267     412.4055     269.6952      71.0363     176.9555     412.4062     269.6940
      3.3467     474.7742     210.4070      84.3026     183.1454     474.7744     210.4055
      3.3667     516.0225     124.1168     100.8584     187.9143     516.0219     124.1149
      3.3868     520.9972      24.8609     121.1111     189.7022     520.9957      24.8592
      3.4068     488.1420     -64.9845     144.7278     186.1545     488.1401     -64.9852
      3.4269     430.9475    -129.0193     169.6922     174.4418     430.9454    -129.0191
      3.4469     366.8535    -164.3069     191.4570     152.7382     366.8513    -164.3060
      3.4669     307.7168    -176.8975     203.8163     122.8099     307.7154    -176.8961
      3.4870     258.4724    -174.7613     202.6683      91.1225     258.4712    -174.7596
      3.5070     219.7872    -164.2332     189.5595      65.5073     219.7867    -164.2314
      3.5271     190.5832    -149.4389     170.3522      50.2501     190.5830    -149.4368
      3.5471     169.4174    -132.8220     150.8890      45.0436     169.4176    -132.8200
      3.5671     155.0500    -115.7889     134.6071      47.3073     155.0506    -115.7868
      3.5872     146.6152     -99.2077     122.7799      54.3610     146.6164     -99.2057
      3.6072     143.6252     -83.7764     115.5585      64.2433     143.6269     -83.7744
      3.6273     145.8838     -70.3235     112.7490      75.7066     145.8861     -70.3218
      3.6473     153.2839     -60.0949     114.2076      87.9676     153.2869     -60.0938
      3.6673     165.3749     -54.9885     120.0069     100.4466     165.3785     -54.9884
      3.6874     180.5710     -57.4929     130.4910     112.5240     180.5749     -57.4941
      3.7074     195.2118     -69.7495     146.2593     123.2811     195.2154     -69.7524
      3.7275     203.6352     -91.3971     168.0378     131.1734     203.6371     -91.4013
      3.7475     200.8245    -117.7410     196.2870     133.6375     200.8245    -117.7455
      3.7675     186.2572    -141.4625     230.3069     126.8232     186.2555    -141.4662
      3.7876     164.2691    -157.2723     266.6857     106.0955     164.2666    -157.2747
      3.8076     140.4105    -164.2562     297.8952      68.4258     140.4078    -164.2574
      3.8277     118.3965    -164.3720     313.6684      16.6122     118.3941    -164.3724
      3.8477      99.7117    -160.1684     307.1082     -38.8616      99.7097    -160.1682
      3.8677      84.4747    -153.6558     280.5107     -85.2171      84.4732    -153.6553
      3.8878      72.2429    -146.1284     243.2512    -115.4255      72.2417    -146.1279
      3.9078      62.4483    -138.3329     204.6945    -129.9835      62.4474    -138.3323
      3.9279      54.5714    -130.6669     170.2357    -133.1401      54.5706    -130.6662
      3.9479      48.1889    -123.3245     141.6517    -129.3196      48.1883    -123.3238
      3.9679      42.9722    -116.3862     118.7761    -121.7521      42.9717    -116.3855
      3.9880      38.6710    -109.8716     100.7380    -112.4455      38.6706    -109.8710
      4.0080      35.0961    -103.7689      86.5687    -102.5389      35.0958    -103.7683
     4.02806     32.10405    -98.05099     75.42387    -92.63470     32.10381    -98.05045
     4.04810     29.58591    -92.68447     66.63189    -83.02560     29.58572    -92.68395
     4.06814     27.45837    -87.63417     59.68046    -73.83224     27.45823    -87.63367
     4.08818     25.65742    -82.86530     54.18575    -65.08190     25.65731    -82.86482
     4.10822     24.13390    -78.34501     49.86380    -56.75362     24.13382    -78.34454
     4.12826     22.85009    -74.04237     46.50602    -48.80146     22.85004    -74.04193
     4.14830     21.77733    -69.92869     43.96148    -41.16800     21.77730    -69.92822
     4.16834     20.89429    -65.97701     42.12410    -33.79103     20.89429    -65.97655
     4.18838     20.18588    -62.16215     40.92378    -26.60740     20.18590    -62.16168
     4.20842     19.64246    -58.46012     40.32104    -19.55390     19.64250    -58.45964
     4.22846     19.25946    -54.84806     40.30383    -12.56850     19.25953    -54.84759
     4.24850     19.03734    -51.30381     40.88718     -5.59079     19.03744    -51.30332
     4.26854     18.98186    -47.80565     42.11485      1.43757     18.98198    -47.80516
     4.28858     19.10472    -44.33214     44.06335      8.57103     19.10489    -44.33163
     4.30862     19.42464    -40.86224     46.84917     15.85651     19.42484    -40.86172
     4.32866     19.96897    -37.37535     50.63933     23.32657     19.96922    -37.37481
     4.34870     20.77614    -33.85205     55.66616     30.98636     20.77646    -33.85147
     4.36874     21.89906    -30.27554     62.24685     38.78900     21.89946    -30.27492
     4.38878     23.40965    -26.63469     70.80548     46.59172     23.41015    -26.63404
     4.40882     25.40520    -22.92930     81.89119     54.07790     25.40581    -22.92861
     4.42886     28.01638    -19.18015     96.17030     60.62484     28.01717    -19.17946
      4.4489      31.4164     -15.4470     114.3376      65.0958      31.4173     -15.4463
      4.4689      35.8276     -11.8605     136.8294      65.5708      35.8289     -11.8598
      4.4890      41.5180      -8.6761     163.1512      59.1746      41.5196      -8.6756
      4.5090      48.7637      -6.3581     190.7308      42.5032      48.7657      -6.3579
      4.5291      57.7295      -5.6870     213.9444      13.4674      57.7319      -5.6873
      4.5491      68.1920      -7.8229     225.3005     -25.5949      68.1946      -7.8240
      4.5691      79.0782     -14.1170     220.0582     -66.7797      79.0808     -14.1193
      4.5892      88.0962     -25.3465     200.2935    -100.8301      88.0979     -25.3497
      4.6092      92.2686     -40.4742     173.0236    -122.9176      92.2690     -40.4781
      4.6293      89.8143     -56.2779     145.0084    -133.6453      89.8131     -56.2814
      4.6493      81.6874     -69.1151     120.0468    -136.1947      81.6852     -69.1177
      4.6693      70.7188     -77.1761      99.3426    -133.7832      70.7162     -77.1776
      4.6894      59.5538     -80.7775      82.7334    -128.7355      59.5513     -80.7780
      4.7094      49.6460     -81.2024      69.5723    -122.4908      49.6440     -81.2024
      4.7295      41.4382     -79.7176      59.1531    -115.8662      41.4365     -79.7172
      4.7495      34.8502     -77.2291      50.8628    -109.2961      34.8489     -77.2285
      4.7695      29.6215     -74.2949      44.2138    -102.9951      29.6204     -74.2943
     4.78958     25.47203    -71.23079     38.83216    -97.05602     25.47123    -71.23019
     4.80962     22.16029    -68.20391     34.43530    -91.50614     22.15963    -68.20332
     4.82966     19.49451    -65.29630     30.81036    -86.33907     19.49398    -65.29572
     4.84970     17.32794    -62.54301     27.79652    -81.53197     17.32753    -62.54249
     4.86974     15.54968    -59.95389     25.27154    -77.05496     15.54934    -59.95339
     4.88978     14.07611    -57.52567     23.14179    -72.87624     14.07582    -57.52519
     4.90982     12.84400    -55.24879     21.33502    -68.96463     12.84376    -55.24835
     4.92986     11.80534    -53.11118     19.79503    -65.29086     11.80514    -53.11077
     4.94990     10.92324    -51.09991     18.47768    -61.82773     10.92307    -51.09951
     4.96994     10.16924    -49.20240     17.34822    -58.55080     10.16910    -49.20203
     4.98998      9.52114    -47.40688     16.37906    -55.43781      9.52103    -47.40652
     5.01002      8.96153    -45.70251     15.54823    -52.46855      8.96143    -45.70218
     5.03006      8.47660    -44.07941     14.83823    -49.62479      8.47652    -44.07907
     5.05010      8.05537    -42.52863     14.23511    -46.88978      8.05530    -42.52831
     5.07014      7.68905    -41.04208     13.72789    -44.24823      7.68900    -41.04178
     5.09018      7.37061    -39.61250     13.30796    -41.68593      7.37056    -39.61219
     5.11022      7.09436    -38.23317     12.96882    -39.18959      7.09432    -38.23288
     5.13026      6.85576    -36.89801     12.70575    -36.74662      6.85573    -36.89771
     5.15030      6.65119    -35.60141     12.51567    -34.34497      6.65117    -35.60112
     5.17034      6.47780    -34.33815     12.39702    -31.97285      6.47778    -34.33786
     5.19038      6.33338    -33.10332     12.34974    -29.61873      6.33338    -33.10304
     5.21042      6.21633    -31.89227     12.37526    -27.27095      6.21633    -31.89199
     5.23046      6.12554    -30.70053     12.47663    -24.91776      6.12555    -30.70025
     5.25050      6.06041    -29.52376     12.65867    -22.54697      6.06041    -29.52346
     5.27054      6.02077    -28.35765     12.92823    -20.14591      6.02078    -28.35735
     5.29058      6.00695    -27.19794     13.29455    -17.70108      6.00697    -27.19765
     5.31062      6.01976    -26.04030     13.76978    -15.19815      6.01979    -26.04000
     5.33066      6.06054    -24.88027     14.36964    -12.62164      6.06056    -24.87997
     5.35070      6.13120    -23.71325     15.11437     -9.95487      6.13123    -23.71293
     5.37074      6.23436    -22.53432     16.03001     -7.17962      6.23440    -22.53400
     5.39078      6.37344    -21.33834     17.15007     -4.27653      6.37348    -21.33800
     5.41082      6.55283    -20.11974     18.51789     -1.22502      6.55286    -20.11938
     5.43086      6.77813    -18.87249     20.18985      1.99592      6.77815    -18.87213
     5.45090      7.05644    -17.59007     22.23981      5.40632      7.05645    -17.58968
     5.47094      7.39678    -16.26534     24.76502      9.02236      7.39678    -16.26493
     5.49098      7.81065    -14.89055     27.89444     12.85108      7.81063    -14.89012
     5.51102      8.31275    -13.45738     31.79943     16.88032      8.31268    -13.45689
     5.53106      8.92199    -11.95701     36.70739     21.06084      8.92186    -11.95647
     5.55110      9.66290    -10.38052     42.91639     25.27372      9.66267    -10.37990
     5.57114     10.56747     -8.71960     50.80529     29.27380     10.56711     -8.71884
     5.59118     11.67775     -6.96786     60.82158     32.59422     11.67720     -6.96689
     5.61122     13.04920     -5.12358     73.40517     34.40127     13.04836     -5.12229
     5.63126     14.75496     -3.19447     88.76033     33.31960     14.75375     -3.19262
      5.6513      16.8908      -1.2064     106.3530      27.3663      16.8892      -1.2036
      5.6713      19.5792       0.7813     124.1305      14.3789      19.5771       0.7858
      5.6914      22.9681       2.6499     138.0571      -6.5560      22.9659       2.6572
      5.7114      27.2135       4.1817     143.3662     -33.1164      27.2126       4.1936
      5.7315      32.4247       5.0118     137.8187     -59.6679      32.4283       5.0301
      5.7515      38.5388       4.6052     123.6847     -80.5925      38.5537       4.6301
      5.7715      45.1296       2.3563     105.7360     -93.5974      45.1660       2.3814
     5.79158     51.30155     -2.07402     87.99374    -99.61427     51.36542     -2.06743
      5.8116      56.0020      -8.3204      72.4959    -100.8081      56.0798      -8.3598
     5.83166     58.75161    -15.38951     59.76767    -99.15818     58.80250    -15.48577
     5.85170     59.91425    -22.49847     49.60101    -96.03561     59.89540    -22.62146
     5.87174     59.94796    -29.65429     41.55488    -92.27129     59.85455    -29.74569
     5.89178     58.61452    -37.11328     35.18151    -88.33056     58.48975    -37.13042
     5.91182     55.26027    -44.45061     30.10211    -84.45809     55.16126    -44.39970
     5.93186     49.81764    -50.53842     26.01852    -80.77296     49.77148    -50.45995
     5.95190     43.15746    -54.47683     22.70319    -77.32504     43.15507    -54.40665
     5.97194     36.43148    -56.20375     19.98438    -74.12746     36.45131    -56.15532
     5.99198     30.40849    -56.24679     17.73264    -71.17435     30.43459    -56.21838
     6.01202     25.36817    -55.24131     15.85000    -68.45094     25.39272    -55.22680
     6.03206     21.28854    -53.68147     14.26188    -65.93869     21.30896    -53.67537
     6.05210     18.02821    -51.88403     12.91091    -63.61843     18.04437    -51.88265
     6.07214     15.42545    -50.03102     11.75269    -61.47152     15.43798    -50.03216
     6.09218     13.33695    -48.21908     10.75251    -59.48066     13.34658    -48.22142
     6.11222     11.64722    -46.49487      9.88293    -57.63025     11.65465    -46.49773
     6.13226     10.26699    -44.87746      9.12215    -55.90614     10.27276    -44.88048
     6.15230      9.12834    -43.37115      8.45266    -54.29586      9.13286    -43.37413
     6.17234      8.17977    -41.97270      7.86030    -52.78830      8.18333    -41.97554
     6.19238      7.38212    -40.67531      7.33352    -51.37363      7.38496    -40.67797
     6.21242      6.70546    -39.47087      6.86285    -50.04319      6.70774    -39.47336
     6.23246      6.12668    -38.35094      6.44045    -48.78927      6.12853    -38.35324
     6.25250      5.62785    -37.30748      6.05979    -47.60507      5.62935    -37.30962
     6.27254      5.19487    -36.33300      5.71543    -46.48452      5.19609    -36.33500
     6.29258      4.81658    -35.42074      5.40277    -45.42228      4.81759    -35.42262
     6.31262      4.48410    -34.56462      5.11792    -44.41352      4.48493    -34.56638
     6.33266      4.19025    -33.75921      4.85757    -43.45397      4.19093    -33.76087
     6.35271      3.92922    -32.99968      4.61890    -42.53982      3.92978    -33.00125
     6.37275      3.69627    -32.28176      4.39948    -41.66759      3.69671    -32.28326
     6.39279      3.48748    -31.60164      4.19721    -40.83418      3.48784    -31.60309
     6.41283      3.29965    -30.95596      4.01027    -40.03681      3.29993    -30.95737
     6.43287      3.13010    -30.34170      3.83709    -39.27294      3.13030    -30.34307
     6.45291      2.97659    -29.75619      3.67628    -38.54031      2.97672    -29.75752
     6.47295      2.83728    -29.19700      3.52664    -37.83682      2.83735    -29.19832
     6.49299      2.71062    -28.66199      3.38711    -37.16055      2.71061    -28.66330
     6.51303      2.59532    -28.14920      3.25675    -36.50980      2.59525    -28.15051
     6.53307      2.49035    -27.65688      3.13472    -35.88298      2.49020    -27.65820
     6.55311      2.39487    -27.18344      3.02031    -35.27867      2.39463    -27.18477
     6.57315      2.30824    -26.72742      2.91284    -34.69553      2.30790    -26.72878
     6.59319      2.23003    -26.28756      2.81174    -34.13234      2.22958    -26.28894
     6.61323      2.16003    -25.86268      2.71648    -33.58795      2.15944    -25.86410
     6.63327      2.09823    -25.45182      2.62659    -33.06139      2.09747    -25.45328
     6.65331      2.04492    -25.05421      2.54165    -32.55161      2.04394    -25.05570
     6.67335      2.00069    -24.66944      2.46129    -32.05779      1.99944    -24.67093
     6.69339      1.96647    -24.29758      2.38515    -31.57910      1.96487    -24.29904
     6.71343      1.94348    -23.93957      2.31293    -31.11477      1.94145    -23.94089
     6.73347      1.93295    -23.59767      2.24435    -30.66409      1.93041    -23.59870
     6.75351      1.93533    -23.27613      2.17914    -30.22638      1.93225    -23.27661
     6.77355      1.94850    -22.98138      2.11707    -29.80105      1.94503    -22.98094
     6.79359      1.96505    -22.72055      2.05794    -29.38753      1.96162    -22.71886
     6.81363      1.97059    -22.49644      2.00155    -28.98524      1.96790    -22.49347
     6.83367      1.94810    -22.30053      1.94771    -28.59371      1.94682    -22.29683
     6.85371      1.88938    -22.11261      1.89627    -28.21248      1.88965    -22.10908
     6.87375      1.80221    -21.91241      1.84708    -27.84109      1.80351    -21.90973
     6.89379      1.70323    -21.69139      1.79999    -27.47911      1.70492    -21.68969
     6.91383      1.60657    -21.45246      1.75488    -27.12616      1.60821    -21.45154
     6.93387      1.51935    -21.20292      1.71163    -26.78187      1.52075    -21.20251
     6.95391      1.44335    -20.94950      1.67013    -26.44591      1.44448    -20.94940
     6.97395      1.37776    -20.69677      1.63029    -26.11791      1.37864    -20.69683
     6.99399      1.32094    -20.44745      1.59201    -25.79760      1.32162    -20.44759
     7.01403      1.27121    -20.20292      1.55520    -25.48466      1.27174    -20.20309
     7.03407      1.22718    -19.96386      1.51978    -25.17885      1.22759    -19.96404
     7.05411      1.18772    -19.73046      1.48568    -24.87987      1.18804    -19.73063
     7.07415      1.15196    -19.50272      1.45284    -24.58748      1.15222    -19.50288
     7.09419      1.11924    -19.28049      1.42117    -24.30145      1.11945    -19.28064
     7.11423      1.08905    -19.06358      1.39063    -24.02157      1.08921    -19.06372
     7.13427      1.06099    -18.85177      1.36116    -23.74758      1.06112    -18.85189
     7.15431      1.03475    -18.64486      1.33270    -23.47935      1.03487    -18.64496
     7.17435      1.01010    -18.44260      1.30520    -23.21659      1.01019    -18.44270
     7.19439      0.98682    -18.24481      1.27863    -22.95922      0.98690    -18.24489
     7.21443      0.96477    -18.05128      1.25293    -22.70699      0.96484    -18.05136
     7.23447      0.94381    -17.86185      1.22806    -22.45979      0.94387    -17.86192
     7.25451      0.92384    -17.67633      1.20399    -22.21740      0.92388    -17.67640
     7.27455      0.90475    -17.49458      1.18068    -21.97971      0.90479    -17.49464
     7.29459      0.88648    -17.31644      1.15810    -21.74657      0.88652    -17.31650
     7.31463      0.86896    -17.14178      1.13621    -21.51782      0.86899    -17.14182
     7.33467      0.85213    -16.97046      1.11498    -21.29335      0.85215    -16.97050
     7.35471      0.83593    -16.80236      1.09439    -21.07301      0.83595    -16.80240
     7.37475      0.82033    -16.63739      1.07441    -20.85672      0.82035    -16.63742
     7.39479      0.80529    -16.47541      1.05501    -20.64430      0.80531    -16.47544
     7.41483      0.79077    -16.31634      1.03618    -20.43569      0.79078    -16.31637
     7.43487      0.77673    -16.16008      1.01787    -20.23076      0.77674    -16.16011
     7.45491      0.76316    -16.00655      1.00009    -20.02940      0.76317    -16.00657
     7.47495      0.75002    -15.85564      0.98280    -19.83153      0.75003    -15.85566
     7.49499      0.73729    -15.70729      0.96598    -19.63705      0.73730    -15.70731
     7.51503      0.72495    -15.56141      0.94962    -19.44586      0.72496    -15.56143
     7.53507      0.71298    -15.41794      0.93370    -19.25788      0.71299    -15.41797
     7.55511      0.70137    -15.27681      0.91821    -19.07301      0.70137    -15.27682
     7.57515      0.69008    -15.13793      0.90312    -18.89120      0.69009    -15.13795
     7.59519      0.67912    -15.00127      0.88842    -18.71233      0.67913    -15.00128
     7.61523      0.66846    -14.86674      0.87410    -18.53636      0.66847    -14.86676
     7.63527      0.65810    -14.73430      0.86014    -18.36317      0.65810    -14.73431
     7.65531      0.64801    -14.60389      0.84654    -18.19275      0.64802    -14.60390
     7.67535      0.63819    -14.47545      0.83328    -18.02499      0.63820    -14.47546
     7.69539      0.62863    -14.34894      0.82034    -17.85985      0.62864    -14.34895
     7.71543      0.61932    -14.22430      0.80772    -17.69723      0.61932    -14.22432
     7.73547      0.61024    -14.10149      0.79541    -17.53711      0.61024    -14.10150
     7.75551      0.60138    -13.98046      0.78338    -17.37940      0.60139    -13.98047
     7.77555      0.59275    -13.86117      0.77165    -17.22405      0.59275    -13.86118
     7.79559      0.58433    -13.74358      0.76019    -17.07102      0.58433    -13.74358
     7.81563      0.57611    -13.62763      0.74900    -16.92024      0.57611    -13.62764
     7.83567      0.56808    -13.51331      0.73806    -16.77167      0.56808    -13.51332
     7.85571      0.56025    -13.40056      0.72738    -16.62524      0.56025    -13.40057
     7.87575      0.55259    -13.28936      0.71694    -16.48093      0.55259    -13.28937
     7.89579      0.54511    -13.17966      0.70673    -16.33866      0.54511    -13.17967
     7.91583      0.53780    -13.07143      0.69675    -16.19840      0.53780    -13.07144
     7.93587      0.53066    -12.96465      0.68699    -16.06012      0.53066    -12.96465
     7.95591      0.52367    -12.85927      0.67745    -15.92376      0.52367    -12.85927
     7.97595      0.51684    -12.75526      0.66811    -15.78927      0.51684    -12.75526
     7.99599      0.51016    -12.65260      0.65897    -15.65663      0.51016    -12.65261
     8.01603      0.50362    -12.55126      0.65003    -15.52578      0.50362    -12.55126
     8.03607      0.49722    -12.45121      0.64128    -15.39671      0.49722    -12.45121
     8.05611      0.49096    -12.35241      0.63271    -15.26937      0.49096    -12.35242
     8.07615      0.48483    -12.25486      0.62432    -15.14371      0.48483    -12.25486
     8.09619      0.47882    -12.15851      0.61611    -15.01970      0.47883    -12.15851
     8.11623      0.47295    -12.06335      0.60807    -14.89733      0.47295    -12.06335
     8.13627      0.46719    -11.96935      0.60018    -14.77653      0.46719    -11.96935
     8.15631      0.46154    -11.87648      0.59246    -14.65730      0.46154    -11.87649
     8.17635      0.45602    -11.78473      0.58490    -14.53958      0.45602    -11.78474
     8.19639      0.45060    -11.69407      0.57749    -14.42336      0.45060    -11.69408
     8.21643      0.44529    -11.60448      0.57022    -14.30861      0.44529    -11.60449
     8.23647      0.44008    -11.51594      0.56310    -14.19528      0.44008    -11.51595
     8.25651      0.43498    -11.42843      0.55611    -14.08337      0.43498    -11.42844
     8.27655      0.42998    -11.34192      0.54927    -13.97283      0.42998    -11.34193
     8.29659      0.42507    -11.25641      0.54255    -13.86366      0.42507    -11.25642
     8.31663      0.42026    -11.17186      0.53597    -13.75581      0.42026    -11.17187
     8.33667      0.41554    -11.08827      0.52951    -13.64925      0.41554    -11.08827
     8.35671      0.41091    -11.00561      0.52318    -13.54397      0.41091    -11.00561
     8.37675      0.40637    -10.92386      0.51696    -13.43996      0.40637    -10.92387
     8.39679      0.40191    -10.84301      0.51087    -13.33716      0.40191    -10.84302
     8.41683      0.39754    -10.76305      0.50488    -13.23557      0.39754    -10.76305
     8.43687      0.39325    -10.68394      0.49901    -13.13517      0.39325    -10.68395
     8.45691      0.38904    -10.60569      0.49325    -13.03592      0.38904    -10.60570
     8.47695      0.38491    -10.52827      0.48760    -12.93782      0.38491    -10.52828
     8.49699      0.38085    -10.45167      0.48205    -12.84084      0.38085    -10.45168
     8.51703      0.37687    -10.37587      0.47660    -12.74494      0.37687    -10.37588
     8.53707      0.37296    -10.30086      0.47125    -12.65014      0.37296    -10.30087
     8.55711      0.36912    -10.22663      0.46600    -12.55640      0.36912    -10.22663
     8.57715      0.36536    -10.15314      0.46084    -12.46368      0.36536    -10.15315
     8.59719      0.36166    -10.08042      0.45578    -12.37199      0.36166    -10.08042
     8.61723      0.35803    -10.00841      0.45081    -12.28130      0.35803    -10.00842
     8.63727      0.35447     -9.93713      0.44593    -12.19160      0.35447     -9.93714
     8.65731      0.35097     -9.86655      0.44114    -12.10286      0.35097     -9.86656
     8.67735      0.34754     -9.79667      0.43643    -12.01507      0.34754     -9.79668
     8.69739      0.34417     -9.72746      0.43181    -11.92821      0.34417     -9.72747
     8.71743      0.34086     -9.65893      0.42727    -11.84227      0.34086     -9.65893
     8.73747      0.33761     -9.59104      0.42281    -11.75723      0.33761     -9.59105
     8.75751      0.33443     -9.52381      0.41844    -11.67307      0.33443     -9.52381
     8.77755      0.33130     -9.45720      0.41414    -11.58978      0.33130     -9.45720
     8.79760      0.32823     -9.39121      0.40992    -11.50733      0.32823     -9.39122
     8.81764      0.32522     -9.32583      0.40577    -11.42573      0.32522     -9.32584
     8.83768      0.32226     -9.26105      0.40170    -11.34495      0.32226     -9.26106
     8.85772      0.31936     -9.19685      0.39771    -11.26496      0.31936     -9.19686
     8.87776      0.31652     -9.13323      0.39378    -11.18578      0.31652     -9.13324
     8.89780      0.31373     -9.07017      0.38993    -11.10736      0.31373     -9.07018
     8.91784      0.31100     -9.00767      0.38615    -11.02973      0.31100     -9.00767
     8.93788      0.30832     -8.94570      0.38244    -10.95282      0.30831     -8.94571
     8.95792      0.30569     -8.88427      0.37880    -10.87667      0.30569     -8.88428
     8.97796      0.30312     -8.82335      0.37523    -10.80123      0.30312     -8.82336
     8.99800      0.30060     -8.76295      0.37172    -10.72650      0.30060     -8.76296
     9.01803      0.29813     -8.70305      0.36828    -10.65246      0.29813     -8.70306
     9.03808      0.29571     -8.64363      0.36491    -10.57911      0.29571     -8.64364
     9.05812      0.29335     -8.58470      0.36160    -10.50643      0.29335     -8.58471
     9.07816      0.29104     -8.52623      0.35836    -10.43439      0.29104     -8.52624
     9.09820      0.28879     -8.46822      0.35519    -10.36300      0.28878     -8.46823
     9.11824      0.28658     -8.41065      0.35208    -10.29224      0.28658     -8.41066
     9.13828      0.28443     -8.35353      0.34903    -10.22210      0.28443     -8.35354
     9.15832      0.28233     -8.29683      0.34606    -10.15256      0.28233     -8.29684
     9.17836      0.28029     -8.24055      0.34314    -10.08362      0.28028     -8.24056
     9.19840      0.27830     -8.18466      0.34029    -10.01525      0.27829     -8.18468
    9.218436     0.276359    -8.129183     0.337511    -9.947438     0.276356    -8.129196
    9.238477     0.274478    -8.074081     0.334794    -9.880189     0.274474    -8.074096
    9.258516     0.272654    -8.019354     0.332144    -9.813472     0.272650    -8.019370
    9.278557     0.270886    -7.964988     0.329562    -9.747281     0.270882    -7.965002
    9.298596     0.269177    -7.910973     0.327049    -9.681609     0.269172    -7.910992
    9.318637     0.267527    -7.857296     0.324604    -9.616435     0.267522    -7.857314
    9.338676     0.265939    -7.803949     0.322231    -9.551740     0.265933    -7.803967
    9.358717     0.264412    -7.750912     0.319930    -9.487514     0.264406    -7.750933
    9.378757     0.262950    -7.698181     0.317703    -9.423749     0.262943    -7.698202
    9.398798     0.261555    -7.645741     0.315552    -9.360433     0.261547    -7.645762
    9.418838     0.260228    -7.593575     0.313479    -9.297532     0.260219    -7.593599
    9.438877     0.258972    -7.541676     0.311488    -9.235057     0.258962    -7.541701
    9.458918     0.257790    -7.490024     0.309579    -9.172970     0.257779    -7.490050
    9.478957     0.256685    -7.438607     0.307759    -9.111263     0.256674    -7.438635
    9.498998     0.255662    -7.387409     0.306029    -9.049919     0.255649    -7.387441
    9.519037     0.254723    -7.336417     0.304394    -8.988924     0.254708    -7.336451
    9.539078     0.253873    -7.285609     0.302860    -8.928246     0.253856    -7.285646
    9.559117     0.253117    -7.234975     0.301432    -8.867887     0.253099    -7.235014
    9.579158     0.252461    -7.184489     0.300116    -8.807800     0.252440    -7.184531
    9.599197     0.251911    -7.134137     0.298919    -8.747989     0.251888    -7.134184
    9.619238     0.251473    -7.083894     0.297850    -8.688417     0.251447    -7.083945
    9.639277     0.251156    -7.033745     0.296918    -8.629065     0.251127    -7.033800
    9.659318     0.250969    -6.983659     0.296133    -8.569902     0.250936    -6.983721
    9.679358     0.250920    -6.933619     0.295507    -8.510905     0.250883    -6.933684
    9.699399     0.251023    -6.883589     0.295055    -8.452039     0.250980    -6.883663
    9.719439     0.251288    -6.833549     0.294792    -8.393279     0.251239    -6.833630
    9.739479     0.251730    -6.783463     0.294737    -8.334582     0.251674    -6.783552
    9.759519     0.252366    -6.733301     0.294911    -8.275915     0.252301    -6.733398
    9.779559     0.253214    -6.683023     0.295338    -8.217235     0.253140    -6.683132
    9.799599     0.254296    -6.632592     0.296047    -8.158492     0.254209    -6.632714
    9.819639     0.255635    -6.581962     0.297071    -8.099639     0.255534    -6.582097
    9.839679     0.257259    -6.531093     0.298450    -8.040623     0.257141    -6.531244
    9.859718     0.259202    -6.479924     0.300228    -7.981381     0.259063    -6.480093
    9.879759     0.261500    -6.428402     0.302461    -7.921844     0.261336    -6.428593
    9.899798     0.264197    -6.376463     0.305213    -7.861936     0.264003    -6.376679
    9.919839     0.267344    -6.324037     0.308561    -7.801561     0.267113    -6.324280
    9.939879     0.271002    -6.271048     0.312598    -7.740640     0.270725    -6.271324
    9.959920     0.275241    -6.217405     0.317437    -7.679050     0.274907    -6.217716
    9.979959     0.280147    -6.163013     0.323213    -7.616683     0.279741    -6.163369
    10.00000      0.28582     -6.10776      0.33010     -7.55339      0.28532     -6.10817
# 
# 04/10/2017 at 17:09 YAMBO_RT @ anomaly [start]
# 04/10/2017 at 17:09                    [end]
#  
# Timing   [Min/Max/Average]: 02s/02s/02s
#
# .-Input file : yambo.in
# | optics                       # [R OPT] Optics
# | bse                          # [R BSE] Bethe Salpeter Equation.
# | bsk                          # [R BSK] Bethe Salpeter Equation kernel
# | bss                          # [R BSS] Bethe Salpeter Equation solver
# | em1s                         # [R Xs] Static Inverse Dielectric Matrix
# | BoseTemp= 0.000000     eV    # Bosonic Temperature
# | FFTGvecs=  387         RL    # [FFT] Plane-waves
# | X_Threads= 1                 # [OPENMP/X] Number of threads for response functions
# | DIP_Threads= 1               # [OPENMP/X] Number of threads for dipoles
# | K_Threads= 1                 # [OPENMP/BSK] Number of threads for response functions
# | Chimod= "hartree"            # [X] IP/Hartree/ALDA/LRC/BSfxc
# | BSEmod= "retarded"           # [BSE] resonant/retarded/coupling
# | BSKmod= "SEX"                # [BSE] IP/Hartree/HF/ALDA/SEX/BSfxc
# | BSSmod= "h"                  # [BSS] (h)aydock/(d)iagonalization/(i)nversion/(t)ddft`
# | BSENGexx=  531         RL    # [BSK] Exchange components
# | BSENGBlk=  59          RL    # [BSK] Screened interaction block size
# | #WehCpl                      # [BSK] eh interaction included also in coupling
# | KfnQPdb= "E < 08_ypp_gw_10fs_Gonly/ndb.QP" # [EXTQP BSK BSS] Database
# | KfnRTdb= "f @ 0.1 ps < 04_elel+elph_0K/ndb.RT_carriers" # [EXTRT BSK BSS] Database
# | % BEnRange
# |   0.00000 | 10.00000 | eV    # [BSS] Energy range
# | %
# | % BDmRange
# |   0.10000 |  0.10000 | eV    # [BSS] Damping range
# | %
# | BEnSteps=  500               # [BSS] Energy steps
# | % BLongDir
# | 0.1000E-4 | 0.000    | 0.000    |        # [BSS] [cc] Electric Field
# | %
# | % BSEBands
# |   2 |  7 |                   # [BSK] Bands range
# | %
# | BSHayTrs=  0.02000           # [BSS] Relative [o/o] Haydock treshold. Strict(>0)/Average(<0)
# | % BndsRnXs
# |   1 |  8 |                   # [Xs] Polarization function bands
# | %
# | NGsBlkXs=  59          RL    # [Xs] Response block size
# | GrFnTpXs= "R"                # [Xs] Green`s function (T)ordered,(R)etarded,(r)senant,(a)ntiresonant [T, R, r, Ta, Ra]
# | % DmRngeXs
# |   0.10000 |  0.10000 | eV    # [Xs] Damping range
# | %
# | % LongDrXs
# | 0.1000E-4 | 0.000    | 0.000    |        # [Xs] [cc] Electric Field
# | %
