#                                                           
#                                                           
# Y88b    /   e           e    e      888~~\    ,88~-_      
#  Y88b  /   d8b         d8b  d8b     888   |  d888   \     
#   Y88b/   /Y88b       d888bdY88b    888 _/  88888    |    
#    Y8Y   /  Y88b     / Y88Y Y888b   888  \  88888    |    
#     Y   /____Y88b   /   YY   Y888b  888   |  Y888   /     
#    /   /      Y88b /          Y888b 888__/    `88_-~      
#                                                           
#                                                           
#       Version 4.2.0 Revision 14456 Hash cc1a9b3           
#                  MPI+SLK+OpenMP Build                     
#               http://www.yambo-code.org                   
#
# Absorption @ Q(1) [q->0 direction] :0.1000E-4  0.000     0.000   
#
#
# - Energies      are Teter 93(XC)
# - Wavefunctions are Teter 93(XC)
#
# - The Green`s function is Retarded -
# - Using the Length Gauge -
# - [r,Vnl] *is* included -
#
#   BSK|Identifier              :5728
#      |Dimension               :9
#      |Bands                   :1 - 10
#      |Exchange           [res]: yes
#      |Correlation        [res]: no
#      |Kernel`s coupling       : yes
#      |Exchange           [cpl]: yes
#      |Correlation        [cpl]: no
#      |W interaction is bare   : no
#      |ALDA kernel in R-space  : yes
#      |RL vectors    [exchange]:39127
#      |E/h energy range    [ev]:-1.000000 - -1.000000
#      |Coupling range     [o/o]: 100.0000 -  100.0000
#
#    E/ev[1]      EPS-Im[2]    EPS-Re[3]    EPSo-Im[4]   EPSo-Re[5]
#
    0.00        0.172E-10     1.01         0.00         1.02    
   0.2002E-1    0.3514E-6     1.010       0.1004E-5     1.016   
   0.4004E-1    0.7028E-6     1.010       0.2008E-5     1.016   
   0.6006E-1    0.1054E-5     1.010       0.3012E-5     1.016   
   0.8008E-1    0.1406E-5     1.010       0.4016E-5     1.016   
   0.1001       0.1757E-5     1.010       0.5021E-5     1.016   
   0.1201       0.2109E-5     1.010       0.6026E-5     1.016   
   0.1401       0.2461E-5     1.010       0.7032E-5     1.016   
   0.1602       0.2812E-5     1.010       0.8038E-5     1.016   
   0.1802       0.3164E-5     1.010       0.9044E-5     1.016   
   0.2002       0.3516E-5     1.010       0.1005E-4     1.016   
   0.2202       0.3869E-5     1.010       0.1106E-4     1.016   
   0.2402       0.4221E-5     1.010       0.1207E-4     1.016   
   0.2603       0.4574E-5     1.010       0.1308E-4     1.016   
   0.2803       0.4926E-5     1.010       0.1409E-4     1.016   
   0.3003       0.5279E-5     1.010       0.1510E-4     1.016   
   0.3203       0.5633E-5     1.010       0.1611E-4     1.016   
   0.3403       0.5986E-5     1.010       0.1713E-4     1.016   
   0.3604       0.6340E-5     1.010       0.1814E-4     1.016   
   0.3804       0.6694E-5     1.010       0.1916E-4     1.016   
   0.4004       0.7049E-5     1.010       0.2018E-4     1.016   
   0.4204       0.7403E-5     1.010       0.2120E-4     1.016   
   0.4404       0.7758E-5     1.010       0.2222E-4     1.016   
   0.4605       0.8114E-5     1.010       0.2324E-4     1.016   
   0.4805       0.8469E-5     1.010       0.2427E-4     1.016   
   0.5005       0.8825E-5     1.010       0.2529E-4     1.016   
   0.5205       0.9182E-5     1.010       0.2632E-4     1.016   
   0.5405       0.9539E-5     1.010       0.2735E-4     1.016   
   0.5606       0.9896E-5     1.010       0.2839E-4     1.016   
   0.5806       0.1025E-4     1.010       0.2942E-4     1.016   
   0.6006       0.1061E-4     1.010       0.3046E-4     1.016   
   0.6206       0.1097E-4     1.010       0.3150E-4     1.016   
   0.6406       0.1133E-4     1.010       0.3254E-4     1.016   
   0.6607       0.1169E-4     1.010       0.3358E-4     1.016   
   0.6807       0.1205E-4     1.010       0.3463E-4     1.016   
   0.7007       0.1241E-4     1.010       0.3568E-4     1.016   
   0.7207       0.1277E-4     1.010       0.3673E-4     1.016   
   0.7407       0.1313E-4     1.010       0.3778E-4     1.016   
   0.7608       0.1350E-4     1.010       0.3884E-4     1.016   
   0.7808       0.1386E-4     1.010       0.3990E-4     1.016   
   0.8008       0.1422E-4     1.010       0.4097E-4     1.016   
   0.8208       0.1459E-4     1.010       0.4203E-4     1.016   
   0.8408       0.1495E-4     1.010       0.4310E-4     1.016   
   0.8609       0.1532E-4     1.010       0.4418E-4     1.016   
   0.8809       0.1569E-4     1.010       0.4525E-4     1.016   
   0.9009       0.1605E-4     1.010       0.4633E-4     1.016   
   0.9209       0.1642E-4     1.010       0.4742E-4     1.016   
   0.9409       0.1679E-4     1.010       0.4851E-4     1.016   
   0.9610       0.1716E-4     1.010       0.4960E-4     1.016   
   0.9810       0.1753E-4     1.010       0.5069E-4     1.016   
    1.001       0.1790E-4     1.010       0.5179E-4     1.016   
    1.021       0.1827E-4     1.010       0.5289E-4     1.016   
    1.041       0.1865E-4     1.010       0.5400E-4     1.016   
    1.061       0.1902E-4     1.010       0.5511E-4     1.017   
    1.081       0.1939E-4     1.010       0.5623E-4     1.017   
    1.101       0.1977E-4     1.010       0.5735E-4     1.017   
    1.121       0.2015E-4     1.010       0.5847E-4     1.017   
    1.141       0.2052E-4     1.010       0.5960E-4     1.017   
    1.161       0.2090E-4     1.010       0.6074E-4     1.017   
    1.181       0.2128E-4     1.010       0.6188E-4     1.017   
    1.201       0.2166E-4     1.010       0.6302E-4     1.017   
    1.221       0.2204E-4     1.010       0.6417E-4     1.017   
    1.241       0.2242E-4     1.010       0.6532E-4     1.017   
    1.261       0.2281E-4     1.010       0.6648E-4     1.017   
    1.281       0.2319E-4     1.010       0.6765E-4     1.017   
    1.301       0.2358E-4     1.010       0.6882E-4     1.017   
    1.321       0.2396E-4     1.010       0.6999E-4     1.017   
    1.341       0.2435E-4     1.010       0.7118E-4     1.017   
    1.361       0.2474E-4     1.010       0.7236E-4     1.017   
    1.381       0.2513E-4     1.010       0.7356E-4     1.017   
    1.401       0.2552E-4     1.010       0.7476E-4     1.017   
    1.421       0.2591E-4     1.010       0.7596E-4     1.017   
    1.441       0.2631E-4     1.010       0.7717E-4     1.017   
    1.461       0.2670E-4     1.010       0.7839E-4     1.017   
    1.481       0.2710E-4     1.010       0.7961E-4     1.017   
    1.502       0.2750E-4     1.010       0.8084E-4     1.017   
    1.522       0.2790E-4     1.010       0.8208E-4     1.017   
    1.542       0.2830E-4     1.010       0.8333E-4     1.017   
    1.562       0.2870E-4     1.010       0.8458E-4     1.017   
    1.582       0.2910E-4     1.010       0.8583E-4     1.017   
    1.602       0.2950E-4     1.010       0.8710E-4     1.017   
    1.622       0.2991E-4     1.010       0.8837E-4     1.017   
    1.642       0.3032E-4     1.010       0.8965E-4     1.017   
    1.662       0.3073E-4     1.010       0.9094E-4     1.017   
    1.682       0.3114E-4     1.010       0.9224E-4     1.017   
    1.702       0.3155E-4     1.010       0.9354E-4     1.017   
    1.722       0.3196E-4     1.010       0.9485E-4     1.017   
    1.742       0.3237E-4     1.010       0.9617E-4     1.017   
    1.762       0.3279E-4     1.010       0.9750E-4     1.017   
    1.782       0.3321E-4     1.010       0.9883E-4     1.017   
    1.802       0.3363E-4     1.010       0.1002E-3     1.017   
    1.822       0.3405E-4     1.010       0.1015E-3     1.017   
    1.842       0.3447E-4     1.010       0.1029E-3     1.017   
    1.862       0.3490E-4     1.010       0.1043E-3     1.017   
    1.882       0.3532E-4     1.010       0.1056E-3     1.017   
    1.902       0.3575E-4     1.010       0.1070E-3     1.017   
    1.922       0.3618E-4     1.010       0.1084E-3     1.017   
    1.942       0.3661E-4     1.010       0.1098E-3     1.017   
    1.962       0.3705E-4     1.010       0.1113E-3     1.017   
    1.982       0.3748E-4     1.010       0.1127E-3     1.017   
    2.002       0.3792E-4     1.010       0.1141E-3     1.017   
    2.022       0.3836E-4     1.010       0.1156E-3     1.017   
    2.042       0.3880E-4     1.010       0.1170E-3     1.017   
    2.062       0.3924E-4     1.010       0.1185E-3     1.017   
    2.082       0.3969E-4     1.010       0.1200E-3     1.017   
    2.102       0.4013E-4     1.010       0.1215E-3     1.017   
    2.122       0.4058E-4     1.010       0.1230E-3     1.017   
    2.142       0.4103E-4     1.010       0.1245E-3     1.017   
    2.162       0.4149E-4     1.010       0.1260E-3     1.017   
    2.182       0.4194E-4     1.010       0.1276E-3     1.018   
    2.202       0.4240E-4     1.010       0.1291E-3     1.018   
    2.222       0.4286E-4     1.010       0.1307E-3     1.018   
    2.242       0.4332E-4     1.010       0.1322E-3     1.018   
    2.262       0.4378E-4     1.010       0.1338E-3     1.018   
    2.282       0.4425E-4     1.010       0.1354E-3     1.018   
    2.302       0.4472E-4     1.010       0.1370E-3     1.018   
    2.322       0.4519E-4     1.010       0.1387E-3     1.018   
    2.342       0.4566E-4     1.010       0.1403E-3     1.018   
    2.362       0.4614E-4     1.010       0.1420E-3     1.018   
    2.382       0.4662E-4     1.010       0.1436E-3     1.018   
    2.402       0.4710E-4     1.010       0.1453E-3     1.018   
    2.422       0.4758E-4     1.010       0.1470E-3     1.018   
    2.442       0.4807E-4     1.010       0.1487E-3     1.018   
    2.462       0.4856E-4     1.010       0.1504E-3     1.018   
    2.482       0.4905E-4     1.010       0.1522E-3     1.018   
    2.503       0.4954E-4     1.010       0.1539E-3     1.018   
    2.523       0.5004E-4     1.010       0.1557E-3     1.018   
    2.543       0.5054E-4     1.010       0.1575E-3     1.018   
    2.563       0.5104E-4     1.010       0.1593E-3     1.018   
    2.583       0.5154E-4     1.010       0.1611E-3     1.018   
    2.603       0.5205E-4     1.010       0.1629E-3     1.018   
    2.623       0.5256E-4     1.010       0.1648E-3     1.018   
    2.643       0.5307E-4     1.010       0.1666E-3     1.018   
    2.663       0.5359E-4     1.010       0.1685E-3     1.018   
    2.683       0.5411E-4     1.010       0.1704E-3     1.018   
    2.703       0.5463E-4     1.010       0.1723E-3     1.018   
    2.723       0.5515E-4     1.010       0.1743E-3     1.018   
    2.743       0.5568E-4     1.010       0.1762E-3     1.018   
    2.763       0.5621E-4     1.010       0.1782E-3     1.018   
    2.783       0.5675E-4     1.010       0.1802E-3     1.018   
    2.803       0.5728E-4     1.010       0.1822E-3     1.018   
    2.823       0.5782E-4     1.010       0.1843E-3     1.018   
    2.843       0.5837E-4     1.010       0.1863E-3     1.019   
    2.863       0.5891E-4     1.010       0.1884E-3     1.019   
    2.883       0.5946E-4     1.010       0.1905E-3     1.019   
    2.903       0.6002E-4     1.010       0.1926E-3     1.019   
    2.923       0.6058E-4     1.010       0.1947E-3     1.019   
    2.943       0.6114E-4     1.010       0.1969E-3     1.019   
    2.963       0.6170E-4     1.010       0.1991E-3     1.019   
    2.983       0.6227E-4     1.010       0.2013E-3     1.019   
    3.003       0.6284E-4     1.010       0.2035E-3     1.019   
    3.023       0.6341E-4     1.010       0.2058E-3     1.019   
    3.043       0.6399E-4     1.010       0.2080E-3     1.019   
    3.063       0.6458E-4     1.010       0.2103E-3     1.019   
    3.083       0.6516E-4     1.010       0.2127E-3     1.019   
    3.103       0.6575E-4     1.010       0.2150E-3     1.019   
    3.123       0.6635E-4     1.010       0.2174E-3     1.019   
    3.143       0.6695E-4     1.011       0.2198E-3     1.019   
    3.163       0.6755E-4     1.011       0.2222E-3     1.019   
    3.183       0.6815E-4     1.011       0.2247E-3     1.019   
    3.203       0.6876E-4     1.011       0.2271E-3     1.019   
    3.223       0.6938E-4     1.011       0.2296E-3     1.019   
    3.243       0.7000E-4     1.011       0.2322E-3     1.019   
    3.263       0.7062E-4     1.011       0.2347E-3     1.019   
    3.283       0.7125E-4     1.011       0.2373E-3     1.019   
    3.303       0.7188E-4     1.011       0.2400E-3     1.020   
    3.323       0.7252E-4     1.011       0.2426E-3     1.020   
    3.343       0.7316E-4     1.011       0.2453E-3     1.020   
    3.363       0.7380E-4     1.011       0.2480E-3     1.020   
    3.383       0.7445E-4     1.011       0.2508E-3     1.020   
    3.403       0.7511E-4     1.011       0.2535E-3     1.020   
    3.423       0.7576E-4     1.011       0.2564E-3     1.020   
    3.443       0.7643E-4     1.011       0.2592E-3     1.020   
    3.463       0.7710E-4     1.011       0.2621E-3     1.020   
    3.483       0.7777E-4     1.011       0.2650E-3     1.020   
    3.504       0.7845E-4     1.011       0.2680E-3     1.020   
    3.524       0.7913E-4     1.011       0.2710E-3     1.020   
    3.544       0.7982E-4     1.011       0.2740E-3     1.020   
    3.564       0.8052E-4     1.011       0.2770E-3     1.020   
    3.584       0.8122E-4     1.011       0.2801E-3     1.020   
    3.604       0.8192E-4     1.011       0.2833E-3     1.020   
    3.624       0.8263E-4     1.011       0.2865E-3     1.020   
    3.644       0.8335E-4     1.011       0.2897E-3     1.020   
    3.664       0.8407E-4     1.011       0.2930E-3     1.020   
    3.684       0.8479E-4     1.011       0.2963E-3     1.021   
    3.704       0.8553E-4     1.011       0.2996E-3     1.021   
    3.724       0.8627E-4     1.011       0.3030E-3     1.021   
    3.744       0.8701E-4     1.011       0.3064E-3     1.021   
    3.764       0.8776E-4     1.011       0.3099E-3     1.021   
    3.784       0.8852E-4     1.011       0.3135E-3     1.021   
    3.804       0.8928E-4     1.011       0.3170E-3     1.021   
    3.824       0.9005E-4     1.011       0.3207E-3     1.021   
    3.844       0.9082E-4     1.011       0.3243E-3     1.021   
    3.864       0.9160E-4     1.011       0.3280E-3     1.021   
    3.884       0.9239E-4     1.011       0.3318E-3     1.021   
    3.904       0.9318E-4     1.011       0.3356E-3     1.021   
    3.924       0.9398E-4     1.011       0.3395E-3     1.021   
    3.944       0.9479E-4     1.011       0.3435E-3     1.021   
    3.964       0.9560E-4     1.011       0.3475E-3     1.021   
    3.984       0.9642E-4     1.011       0.3515E-3     1.021   
    4.004       0.9725E-4     1.011       0.3556E-3     1.022   
    4.024       0.9808E-4     1.011       0.3598E-3     1.022   
    4.044       0.9893E-4     1.011       0.3640E-3     1.022   
    4.064       0.9977E-4     1.011       0.3683E-3     1.022   
    4.084       0.1006E-3     1.011       0.3726E-3     1.022   
    4.104       0.1015E-3     1.011       0.3770E-3     1.022   
    4.124       0.1024E-3     1.011       0.3815E-3     1.022   
    4.144       0.1032E-3     1.011       0.3860E-3     1.022   
    4.164       0.1041E-3     1.011       0.3906E-3     1.022   
    4.184       0.1050E-3     1.011       0.3953E-3     1.022   
    4.204       0.1059E-3     1.011       0.4001E-3     1.022   
    4.224       0.1068E-3     1.011       0.4049E-3     1.022   
    4.244       0.1078E-3     1.011       0.4098E-3     1.022   
    4.264       0.1087E-3     1.011       0.4148E-3     1.023   
    4.284       0.1096E-3     1.011       0.4198E-3     1.023   
    4.304       0.1106E-3     1.012       0.4249E-3     1.023   
    4.324       0.1115E-3     1.012       0.4301E-3     1.023   
    4.344       0.1125E-3     1.012       0.4354E-3     1.023   
    4.364       0.1134E-3     1.012       0.4408E-3     1.023   
    4.384       0.1144E-3     1.012       0.4463E-3     1.023   
    4.404       0.1154E-3     1.012       0.4518E-3     1.023   
    4.424       0.1164E-3     1.012       0.4574E-3     1.023   
    4.444       0.1174E-3     1.012       0.4632E-3     1.023   
    4.464       0.1184E-3     1.012       0.4690E-3     1.023   
    4.484       0.1195E-3     1.012       0.4749E-3     1.024   
    4.505       0.1205E-3     1.012       0.4809E-3     1.024   
    4.525       0.1215E-3     1.012       0.4870E-3     1.024   
    4.545       0.1226E-3     1.012       0.4933E-3     1.024   
    4.565       0.1237E-3     1.012       0.4996E-3     1.024   
    4.585       0.1247E-3     1.012       0.5060E-3     1.024   
    4.605       0.1258E-3     1.012       0.5126E-3     1.024   
    4.625       0.1269E-3     1.012       0.5192E-3     1.024   
    4.645       0.1280E-3     1.012       0.5260E-3     1.024   
    4.665       0.1292E-3     1.012       0.5329E-3     1.024   
    4.685       0.1303E-3     1.012       0.5399E-3     1.025   
    4.705       0.1314E-3     1.012       0.5470E-3     1.025   
    4.725       0.1326E-3     1.012       0.5543E-3     1.025   
    4.745       0.1338E-3     1.012       0.5617E-3     1.025   
    4.765       0.1349E-3     1.012       0.5692E-3     1.025   
    4.785       0.1361E-3     1.012       0.5769E-3     1.025   
    4.805       0.1373E-3     1.012       0.5847E-3     1.025   
    4.825       0.1386E-3     1.012       0.5926E-3     1.025   
    4.845       0.1398E-3     1.012       0.6007E-3     1.025   
    4.865       0.1410E-3     1.012       0.6090E-3     1.026   
    4.885       0.1423E-3     1.012       0.6174E-3     1.026   
    4.905       0.1435E-3     1.012       0.6260E-3     1.026   
    4.925       0.1448E-3     1.012       0.6347E-3     1.026   
    4.945       0.1461E-3     1.012       0.6436E-3     1.026   
    4.965       0.1474E-3     1.012       0.6527E-3     1.026   
    4.985       0.1488E-3     1.012       0.6619E-3     1.026   
    5.005       0.1501E-3     1.012       0.6713E-3     1.026   
    5.025       0.1514E-3     1.012       0.6809E-3     1.027   
    5.045       0.1528E-3     1.012       0.6907E-3     1.027   
    5.065       0.1542E-3     1.013       0.7007E-3     1.027   
    5.085       0.1556E-3     1.013       0.7110E-3     1.027   
    5.105       0.1570E-3     1.013       0.7214E-3     1.027   
    5.125       0.1584E-3     1.013       0.7320E-3     1.027   
    5.145       0.1599E-3     1.013       0.7428E-3     1.027   
    5.165       0.1613E-3     1.013       0.7539E-3     1.028   
    5.185       0.1628E-3     1.013       0.7652E-3     1.028   
    5.205       0.1643E-3     1.013       0.7768E-3     1.028   
    5.225       0.1658E-3     1.013       0.7885E-3     1.028   
    5.245       0.1674E-3     1.013       0.8006E-3     1.028   
    5.265       0.1689E-3     1.013       0.8129E-3     1.028   
    5.285       0.1705E-3     1.013       0.8254E-3     1.029   
    5.305       0.1721E-3     1.013       0.8383E-3     1.029   
    5.325       0.1737E-3     1.013       0.8514E-3     1.029   
    5.345       0.1753E-3     1.013       0.8648E-3     1.029   
    5.365       0.1769E-3     1.013       0.8786E-3     1.029   
    5.385       0.1786E-3     1.013       0.8926E-3     1.029   
    5.405       0.1803E-3     1.013       0.9070E-3     1.030   
    5.425       0.1820E-3     1.013       0.9216E-3     1.030   
    5.445       0.1837E-3     1.013       0.9367E-3     1.030   
    5.465       0.1854E-3     1.013       0.9520E-3     1.030   
    5.485       0.1872E-3     1.013       0.9678E-3     1.030   
    5.506       0.1890E-3     1.013       0.9839E-3     1.031   
    5.526       0.1908E-3     1.013       0.1000E-2     1.031   
    5.546       0.1926E-3     1.013       0.1017E-2     1.031   
    5.566       0.1945E-3     1.013       0.1035E-2     1.031   
    5.586       0.1963E-3     1.013       0.1052E-2     1.031   
    5.606       0.1982E-3     1.013       0.1070E-2     1.032   
    5.626       0.2002E-3     1.013       0.1089E-2     1.032   
    5.646       0.2021E-3     1.014       0.1108E-2     1.032   
    5.666       0.2041E-3     1.014       0.1128E-2     1.032   
    5.686       0.2061E-3     1.014       0.1148E-2     1.032   
    5.706       0.2081E-3     1.014       0.1168E-2     1.033   
    5.726       0.2102E-3     1.014       0.1190E-2     1.033   
    5.746       0.2123E-3     1.014       0.1211E-2     1.033   
    5.766       0.2144E-3     1.014       0.1234E-2     1.033   
    5.786       0.2165E-3     1.014       0.1256E-2     1.034   
    5.806       0.2187E-3     1.014       0.1280E-2     1.034   
    5.826       0.2209E-3     1.014       0.1304E-2     1.034   
    5.846       0.2231E-3     1.014       0.1329E-2     1.034   
    5.866       0.2253E-3     1.014       0.1354E-2     1.035   
    5.886       0.2276E-3     1.014       0.1381E-2     1.035   
    5.906       0.2299E-3     1.014       0.1408E-2     1.035   
    5.926       0.2323E-3     1.014       0.1435E-2     1.036   
    5.946       0.2347E-3     1.014       0.1464E-2     1.036   
    5.966       0.2371E-3     1.014       0.1493E-2     1.036   
    5.986       0.2395E-3     1.014       0.1523E-2     1.036   
    6.006       0.2420E-3     1.014       0.1555E-2     1.037   
    6.026       0.2445E-3     1.014       0.1587E-2     1.037   
    6.046       0.2471E-3     1.014       0.1620E-2     1.037   
    6.066       0.2497E-3     1.014       0.1654E-2     1.038   
    6.086       0.2523E-3     1.015       0.1689E-2     1.038   
    6.106       0.2550E-3     1.015       0.1725E-2     1.038   
    6.126       0.2577E-3     1.015       0.1762E-2     1.039   
    6.146       0.2604E-3     1.015       0.1801E-2     1.039   
    6.166       0.2632E-3     1.015       0.1841E-2     1.039   
    6.186       0.2660E-3     1.015       0.1882E-2     1.040   
    6.206       0.2689E-3     1.015       0.1924E-2     1.040   
    6.226       0.2718E-3     1.015       0.1968E-2     1.041   
    6.246       0.2748E-3     1.015       0.2014E-2     1.041   
    6.266       0.2778E-3     1.015       0.2061E-2     1.041   
    6.286       0.2809E-3     1.015       0.2109E-2     1.042   
    6.306       0.2840E-3     1.015       0.2160E-2     1.042   
    6.326       0.2871E-3     1.015       0.2212E-2     1.043   
    6.346       0.2903E-3     1.015       0.2266E-2     1.043   
    6.366       0.2935E-3     1.015       0.2322E-2     1.044   
    6.386       0.2968E-3     1.015       0.2380E-2     1.044   
    6.406       0.3002E-3     1.015       0.2440E-2     1.044   
    6.426       0.3036E-3     1.015       0.2502E-2     1.045   
    6.446       0.3071E-3     1.016       0.2567E-2     1.045   
    6.466       0.3106E-3     1.016       0.2634E-2     1.046   
    6.486       0.3141E-3     1.016       0.2704E-2     1.046   
    6.507       0.3178E-3     1.016       0.2777E-2     1.047   
    6.527       0.3215E-3     1.016       0.2853E-2     1.048   
    6.547       0.3252E-3     1.016       0.2932E-2     1.048   
    6.567       0.3290E-3     1.016       0.3014E-2     1.049   
    6.587       0.3329E-3     1.016       0.3099E-2     1.049   
    6.607       0.3369E-3     1.016       0.3188E-2     1.050   
    6.627       0.3409E-3     1.016       0.3281E-2     1.051   
    6.647       0.3450E-3     1.016       0.3378E-2     1.051   
    6.667       0.3491E-3     1.016       0.3480E-2     1.052   
    6.687       0.3534E-3     1.016       0.3586E-2     1.053   
    6.707       0.3577E-3     1.016       0.3697E-2     1.053   
    6.727       0.3621E-3     1.016       0.3813E-2     1.054   
    6.747       0.3665E-3     1.017       0.3934E-2     1.055   
    6.767       0.3711E-3     1.017       0.4062E-2     1.056   
    6.787       0.3757E-3     1.017       0.4195E-2     1.057   
    6.807       0.3804E-3     1.017       0.4336E-2     1.057   
    6.827       0.3852E-3     1.017       0.4483E-2     1.058   
    6.847       0.3901E-3     1.017       0.4638E-2     1.059   
    6.867       0.3950E-3     1.017       0.4801E-2     1.060   
    6.887       0.4001E-3     1.017       0.4973E-2     1.061   
    6.907       0.4053E-3     1.017       0.5154E-2     1.062   
    6.927       0.4105E-3     1.017       0.5345E-2     1.063   
    6.947       0.4159E-3     1.017       0.5546E-2     1.064   
    6.967       0.4214E-3     1.017       0.5760E-2     1.065   
    6.987       0.4270E-3     1.017       0.5985E-2     1.066   
    7.007       0.4327E-3     1.018       0.6225E-2     1.068   
    7.027       0.4385E-3     1.018       0.6478E-2     1.069   
    7.047       0.4444E-3     1.018       0.6747E-2     1.070   
    7.067       0.4504E-3     1.018       0.7034E-2     1.071   
    7.087       0.4566E-3     1.018       0.7339E-2     1.073   
    7.107       0.4629E-3     1.018       0.7664E-2     1.074   
    7.127       0.4693E-3     1.018       0.8011E-2     1.076   
    7.147       0.4758E-3     1.018       0.8381E-2     1.077   
    7.167       0.4825E-3     1.018       0.8778E-2     1.079   
    7.187       0.4894E-3     1.018       0.9204E-2     1.081   
    7.207       0.4963E-3     1.018       0.9661E-2     1.083   
    7.227       0.5035E-3     1.019       0.1015E-1     1.085   
    7.247       0.5107E-3     1.019       0.1068E-1     1.087   
    7.267       0.5182E-3     1.019       0.1125E-1     1.089   
    7.287       0.5258E-3     1.019       0.1187E-1     1.091   
    7.307       0.5336E-3     1.019       0.1255E-1     1.093   
    7.327       0.5415E-3     1.019       0.1327E-1     1.096   
    7.347       0.5497E-3     1.019       0.1407E-1     1.098   
    7.367       0.5580E-3     1.019       0.1494E-1     1.101   
    7.387       0.5665E-3     1.019       0.1588E-1     1.104   
    7.407       0.5752E-3     1.020       0.1692E-1     1.107   
    7.427       0.5842E-3     1.020       0.1807E-1     1.111   
    7.447       0.5933E-3     1.020       0.1933E-1     1.114   
    7.467       0.6027E-3     1.020       0.2074E-1     1.118   
    7.487       0.6122E-3     1.020       0.2229E-1     1.122   
    7.508       0.6221E-3     1.020       0.2403E-1     1.126   
    7.528       0.6321E-3     1.020       0.2597E-1     1.131   
    7.548       0.6425E-3     1.020       0.2816E-1     1.136   
    7.568       0.6530E-3     1.021       0.3062E-1     1.141   
    7.588       0.6639E-3     1.021       0.3342E-1     1.147   
    7.608       0.6750E-3     1.021       0.3662E-1     1.153   
    7.628       0.6865E-3     1.021       0.4028E-1     1.160   
    7.648       0.6982E-3     1.021       0.4451E-1     1.167   
    7.668       0.7102E-3     1.021       0.4942E-1     1.175   
    7.688       0.7226E-3     1.021       0.5515E-1     1.184   
    7.708       0.7353E-3     1.022       0.6191E-1     1.193   
    7.728       0.7484E-3     1.022       0.6994E-1     1.204   
    7.748       0.7618E-3     1.022       0.7955E-1     1.215   
    7.768       0.7756E-3     1.022       0.9117E-1     1.228   
    7.788       0.7898E-3     1.022       0.1053        1.241   
    7.808       0.8044E-3     1.022       0.1228        1.256   
    7.828       0.8195E-3     1.022       0.1445        1.271   
    7.848       0.8350E-3     1.023       0.1718        1.287   
    7.868       0.8509E-3     1.023       0.2062        1.303   
    7.888       0.8674E-3     1.023       0.2498        1.316   
    7.908       0.8843E-3     1.023       0.3045        1.323   
    7.928       0.9018E-3     1.023       0.3717        1.318   
    7.948       0.9198E-3     1.023       0.4500        1.294   
    7.968       0.9384E-3     1.024       0.5318        1.241   
    7.988       0.9577E-3     1.024       0.6007        1.151   
    8.008       0.9775E-3     1.024       0.6350        1.032   
    8.028       0.9980E-3     1.024       0.6208       0.9072   
    8.048       0.1019E-2     1.024       0.5640       0.8032   
    8.068       0.1041E-2     1.025       0.4852       0.7343   
    8.088       0.1064E-2     1.025       0.4040       0.6987   
    8.108       0.1087E-2     1.025       0.3316       0.6872   
    8.128       0.1112E-2     1.025       0.2716       0.6903   
    8.148       0.1137E-2     1.026       0.2235       0.7013   
    8.168       0.1163E-2     1.026       0.1855       0.7159   
    8.188       0.1190E-2     1.026       0.1554       0.7317   
    8.208       0.1219E-2     1.026       0.1315       0.7474   
    8.228       0.1248E-2     1.026       0.1124       0.7624   
    8.248       0.1278E-2     1.027       0.9689E-1    0.7765   
    8.268       0.1310E-2     1.027       0.8426E-1    0.7894   
    8.288       0.1343E-2     1.027       0.7385E-1    0.8013   
    8.308       0.1377E-2     1.028       0.6520E-1    0.8122   
    8.328       0.1413E-2     1.028       0.5793E-1    0.8221   
    8.348       0.1451E-2     1.028       0.5179E-1    0.8312   
    8.368       0.1490E-2     1.028       0.4655E-1    0.8395   
    8.388       0.1530E-2     1.029       0.4205E-1    0.8471   
    8.408       0.1573E-2     1.029       0.3816E-1    0.8541   
    8.428       0.1618E-2     1.029       0.3478E-1    0.8606   
    8.448       0.1664E-2     1.030       0.3182E-1    0.8665   
    8.468       0.1713E-2     1.030       0.2922E-1    0.8721   
    8.488       0.1765E-2     1.030       0.2693E-1    0.8772   
    8.509       0.1819E-2     1.031       0.2489E-1    0.8819   
    8.529       0.1876E-2     1.031       0.2307E-1    0.8864   
    8.549       0.1935E-2     1.031       0.2144E-1    0.8905   
    8.569       0.1998E-2     1.032       0.1998E-1    0.8944   
    8.589       0.2065E-2     1.032       0.1867E-1    0.8980   
    8.609       0.2135E-2     1.033       0.1748E-1    0.9014   
    8.629       0.2209E-2     1.033       0.1639E-1    0.9047   
    8.649       0.2288E-2     1.033       0.1541E-1    0.9077   
    8.669       0.2371E-2     1.034       0.1452E-1    0.9105   
    8.689       0.2460E-2     1.034       0.1370E-1    0.9132   
    8.709       0.2554E-2     1.035       0.1294E-1    0.9158   
    8.729       0.2655E-2     1.035       0.1225E-1    0.9182   
    8.749       0.2762E-2     1.036       0.1162E-1    0.9205   
    8.769       0.2877E-2     1.036       0.1103E-1    0.9227   
    8.789       0.3000E-2     1.037       0.1049E-1    0.9248   
    8.809       0.3132E-2     1.038       0.9986E-2    0.9268   
    8.829       0.3273E-2     1.038       0.9520E-2    0.9287   
    8.849       0.3426E-2     1.039       0.9088E-2    0.9305   
    8.869       0.3591E-2     1.040       0.8685E-2    0.9322   
    8.889       0.3770E-2     1.040       0.8310E-2    0.9338   
    8.909       0.3964E-2     1.041       0.7960E-2    0.9354   
    8.929       0.4175E-2     1.042       0.7633E-2    0.9370   
    8.949       0.4406E-2     1.043       0.7328E-2    0.9384   
    8.969       0.4658E-2     1.044       0.7042E-2    0.9398   
    8.989       0.4936E-2     1.044       0.6774E-2    0.9412   
    9.009       0.5242E-2     1.045       0.6523E-2    0.9425   
    9.029       0.5580E-2     1.046       0.6288E-2    0.9437   
    9.049       0.5955E-2     1.048       0.6067E-2    0.9450   
    9.069       0.6374E-2     1.049       0.5860E-2    0.9461   
    9.089       0.6843E-2     1.050       0.5665E-2    0.9473   
    9.109       0.7371E-2     1.051       0.5482E-2    0.9484   
    9.129       0.7969E-2     1.053       0.5311E-2    0.9494   
    9.149       0.8648E-2     1.054       0.5150E-2    0.9504   
    9.169       0.9425E-2     1.056       0.5000E-2    0.9514   
    9.189       0.1032E-1     1.057       0.4859E-2    0.9524   
    9.209       0.1136E-1     1.059       0.4727E-2    0.9534   
    9.229       0.1257E-1     1.061       0.4604E-2    0.9543   
    9.249       0.1399E-1     1.064       0.4489E-2    0.9552   
    9.269       0.1568E-1     1.066       0.4384E-2    0.9560   
    9.289       0.1771E-1     1.069       0.4286E-2    0.9569   
    9.309       0.2016E-1     1.071       0.4197E-2    0.9577   
    9.329       0.2315E-1     1.074       0.4115E-2    0.9586   
    9.349       0.2683E-1     1.078       0.4043E-2    0.9594   
    9.369       0.3142E-1     1.081       0.3978E-2    0.9601   
    9.389       0.3719E-1     1.084       0.3923E-2    0.9609   
    9.409       0.4447E-1     1.088       0.3876E-2    0.9617   
    9.429       0.5366E-1     1.090       0.3840E-2    0.9624   
    9.449       0.6513E-1     1.091       0.3814E-2    0.9632   
    9.469       0.7902E-1     1.090       0.3799E-2    0.9639   
    9.489       0.9473E-1     1.084       0.3798E-2    0.9647   
    9.510       0.1103        1.072       0.3811E-2    0.9654   
    9.530       0.1219        1.052       0.3840E-2    0.9661   
    9.550       0.1256        1.029       0.3888E-2    0.9669   
    9.570       0.1198        1.006       0.3958E-2    0.9676   
    9.590       0.1069       0.9883       0.4056E-2    0.9684   
    9.610       0.9118E-1    0.9778       0.4185E-2    0.9691   
    9.630       0.7594E-1    0.9732       0.4353E-2    0.9699   
    9.650       0.6279E-1    0.9726       0.4570E-2    0.9707   
    9.670       0.5205E-1    0.9744       0.4848E-2    0.9715   
    9.690       0.4353E-1    0.9774       0.5204E-2    0.9723   
    9.710       0.3682E-1    0.9809       0.5658E-2    0.9731   
    9.730       0.3153E-1    0.9846       0.6241E-2    0.9740   
    9.750       0.2735E-1    0.9882       0.6990E-2    0.9748   
    9.770       0.2402E-1    0.9917       0.7952E-2    0.9756   
    9.790       0.2135E-1    0.9950       0.9181E-2    0.9763   
     9.80981      0.01919      0.99812      0.01073      0.97674
     9.82983      0.01744      1.00108      0.01260      0.97681
     9.84985      0.01602      1.00386      0.01470      0.97622
     9.86987      0.01485      1.00651      0.01673      0.97474
     9.88989      0.01389      1.00902      0.01816      0.97234
     9.90991      0.01311      1.01143      0.01846      0.96940
     9.92993      0.01248      1.01374      0.01749      0.96662
     9.94995      0.01197      1.01598      0.01562      0.96462
     9.96997      0.01157      1.01816      0.01343      0.96356
     9.98999      0.01126      1.02029      0.01134      0.96327
    10.01       0.1103E-1     1.022       0.9545E-2    0.9635   
    10.03       0.1088E-1     1.024       0.8081E-2    0.9640   
    10.05       0.1080E-1     1.026       0.6911E-2    0.9646   
    10.07       0.1078E-1     1.029       0.5980E-2    0.9653   
    10.09       0.1082E-1     1.031       0.5239E-2    0.9660   
    10.11       0.1093E-1     1.033       0.4642E-2    0.9667   
    10.13       0.1109E-1     1.035       0.4158E-2    0.9674   
    10.15       0.1131E-1     1.037       0.3761E-2    0.9680   
    10.17       0.1159E-1     1.039       0.3431E-2    0.9686   
    10.19       0.1193E-1     1.041       0.3154E-2    0.9692   
    10.21       0.1234E-1     1.044       0.2920E-2    0.9697   
    10.23       0.1282E-1     1.046       0.2719E-2    0.9702   
    10.25       0.1338E-1     1.049       0.2546E-2    0.9707   
    10.27       0.1402E-1     1.051       0.2395E-2    0.9712   
    10.29       0.1476E-1     1.054       0.2262E-2    0.9716   
    10.31       0.1560E-1     1.057       0.2145E-2    0.9720   
    10.33       0.1656E-1     1.060       0.2040E-2    0.9724   
    10.35       0.1766E-1     1.063       0.1947E-2    0.9728   
    10.37       0.1892E-1     1.066       0.1863E-2    0.9732   
    10.39       0.2035E-1     1.070       0.1786E-2    0.9735   
    10.41       0.2201E-1     1.074       0.1717E-2    0.9739   
    10.43       0.2391E-1     1.078       0.1653E-2    0.9742   
    10.45       0.2611E-1     1.082       0.1594E-2    0.9745   
    10.47       0.2867E-1     1.087       0.1540E-2    0.9748   
    10.49       0.3167E-1     1.092       0.1490E-2    0.9751   
    10.51       0.3519E-1     1.098       0.1444E-2    0.9754   
    10.53       0.3936E-1     1.104       0.1400E-2    0.9757   
    10.55       0.4435E-1     1.110       0.1360E-2    0.9760   
    10.57       0.5034E-1     1.117       0.1322E-2    0.9762   
    10.59       0.5762E-1     1.125       0.1286E-2    0.9765   
    10.61       0.6654E-1     1.134       0.1252E-2    0.9767   
    10.63       0.7758E-1     1.143       0.1220E-2    0.9770   
    10.65       0.9136E-1     1.152       0.1190E-2    0.9772   
    10.67       0.1087        1.162       0.1161E-2    0.9774   
    10.69       0.1306        1.171       0.1134E-2    0.9777   
    10.71       0.1584        1.178       0.1108E-2    0.9779   
    10.73       0.1931        1.181       0.1083E-2    0.9781   
    10.75       0.2352        1.175       0.1060E-2    0.9783   
    10.77       0.2830        1.156       0.1037E-2    0.9785   
    10.79       0.3304        1.118       0.1015E-2    0.9787   
    10.81       0.3662        1.058       0.9947E-3    0.9789   
    10.83       0.3778       0.9852       0.9747E-3    0.9791   
    10.85       0.3605       0.9137       0.9555E-3    0.9793   
    10.87       0.3213       0.8583       0.9370E-3    0.9795   
    10.89       0.2730       0.8242       0.9192E-3    0.9797   
    10.91       0.2260       0.8083       0.9021E-3    0.9799   
    10.93       0.1853       0.8049       0.8855E-3    0.9801   
    10.95       0.1520       0.8087       0.8695E-3    0.9802   
    10.97       0.1255       0.8162       0.8540E-3    0.9804   
    10.99       0.1045       0.8253       0.8391E-3    0.9806   
    11.01       0.8791E-1    0.8348       0.8246E-3    0.9807   
    11.03       0.7468E-1    0.8441       0.8105E-3    0.9809   
    11.05       0.6406E-1    0.8530       0.7969E-3    0.9811   
    11.07       0.5545E-1    0.8612       0.7837E-3    0.9812   
    11.09       0.4839E-1    0.8688       0.7709E-3    0.9814   
    11.11       0.4256E-1    0.8757       0.7584E-3    0.9815   
    11.13       0.3769E-1    0.8821       0.7463E-3    0.9817   
    11.15       0.3359E-1    0.8879       0.7345E-3    0.9818   
    11.17       0.3011E-1    0.8932       0.7231E-3    0.9820   
    11.19       0.2714E-1    0.8981       0.7120E-3    0.9821   
    11.21       0.2458E-1    0.9026       0.7011E-3    0.9822   
    11.23       0.2237E-1    0.9067       0.6905E-3    0.9824   
    11.25       0.2043E-1    0.9105       0.6802E-3    0.9825   
    11.27       0.1874E-1    0.9140       0.6702E-3    0.9827   
    11.29       0.1725E-1    0.9173       0.6604E-3    0.9828   
    11.31       0.1592E-1    0.9204       0.6509E-3    0.9829   
    11.33       0.1475E-1    0.9232       0.6415E-3    0.9830   
    11.35       0.1370E-1    0.9258       0.6324E-3    0.9832   
    11.37       0.1275E-1    0.9283       0.6236E-3    0.9833   
    11.39       0.1191E-1    0.9306       0.6149E-3    0.9834   
    11.41       0.1114E-1    0.9328       0.6064E-3    0.9835   
    11.43       0.1045E-1    0.9348       0.5981E-3    0.9837   
    11.45       0.9816E-2    0.9368       0.5900E-3    0.9838   
    11.47       0.9241E-2    0.9386       0.5821E-3    0.9839   
    11.49       0.8715E-2    0.9403       0.5743E-3    0.9840   
    11.51       0.8233E-2    0.9419       0.5667E-3    0.9841   
    11.53       0.7790E-2    0.9435       0.5593E-3    0.9842   
    11.55       0.7383E-2    0.9449       0.5520E-3    0.9844   
    11.57       0.7007E-2    0.9463       0.5449E-3    0.9845   
    11.59       0.6659E-2    0.9476       0.5379E-3    0.9846   
    11.61       0.6336E-2    0.9489       0.5311E-3    0.9847   
    11.63       0.6037E-2    0.9501       0.5244E-3    0.9848   
    11.65       0.5759E-2    0.9512       0.5179E-3    0.9849   
    11.67       0.5499E-2    0.9523       0.5114E-3    0.9850   
    11.69       0.5257E-2    0.9534       0.5051E-3    0.9851   
    11.71       0.5031E-2    0.9544       0.4990E-3    0.9852   
    11.73       0.4819E-2    0.9553       0.4929E-3    0.9853   
    11.75       0.4621E-2    0.9563       0.4869E-3    0.9854   
    11.77       0.4434E-2    0.9572       0.4811E-3    0.9855   
    11.79       0.4259E-2    0.9580       0.4754E-3    0.9856   
    11.81       0.4094E-2    0.9588       0.4698E-3    0.9857   
    11.83       0.3939E-2    0.9596       0.4643E-3    0.9858   
    11.85       0.3792E-2    0.9604       0.4588E-3    0.9859   
    11.87       0.3654E-2    0.9611       0.4535E-3    0.9860   
    11.89       0.3523E-2    0.9618       0.4483E-3    0.9860   
    11.91       0.3399E-2    0.9625       0.4432E-3    0.9861   
    11.93       0.3282E-2    0.9631       0.4381E-3    0.9862   
    11.95       0.3170E-2    0.9638       0.4332E-3    0.9863   
    11.97       0.3065E-2    0.9644       0.4283E-3    0.9864   
    11.99       0.2964E-2    0.9650       0.4235E-3    0.9865   
    12.01       0.2869E-2    0.9656       0.4188E-3    0.9866   
    12.03       0.2778E-2    0.9661       0.4142E-3    0.9866   
    12.05       0.2691E-2    0.9667       0.4097E-3    0.9867   
    12.07       0.2608E-2    0.9672       0.4052E-3    0.9868   
    12.09       0.2530E-2    0.9677       0.4008E-3    0.9869   
    12.11       0.2454E-2    0.9682       0.3965E-3    0.9870   
    12.13       0.2383E-2    0.9687       0.3923E-3    0.9871   
    12.15       0.2314E-2    0.9691       0.3881E-3    0.9871   
    12.17       0.2248E-2    0.9696       0.3840E-3    0.9872   
    12.19       0.2185E-2    0.9700       0.3799E-3    0.9873   
    12.21       0.2125E-2    0.9705       0.3760E-3    0.9874   
    12.23       0.2067E-2    0.9709       0.3720E-3    0.9874   
    12.25       0.2011E-2    0.9713       0.3682E-3    0.9875   
    12.27       0.1958E-2    0.9717       0.3644E-3    0.9876   
    12.29       0.1907E-2    0.9721       0.3607E-3    0.9877   
    12.31       0.1858E-2    0.9724       0.3570E-3    0.9877   
    12.33       0.1811E-2    0.9728       0.3534E-3    0.9878   
    12.35       0.1765E-2    0.9731       0.3498E-3    0.9879   
    12.37       0.1722E-2    0.9735       0.3463E-3    0.9879   
    12.39       0.1679E-2    0.9738       0.3428E-3    0.9880   
    12.41       0.1639E-2    0.9742       0.3394E-3    0.9881   
    12.43       0.1600E-2    0.9745       0.3361E-3    0.9881   
    12.45       0.1562E-2    0.9748       0.3328E-3    0.9882   
    12.47       0.1526E-2    0.9751       0.3295E-3    0.9883   
    12.49       0.1491E-2    0.9754       0.3263E-3    0.9883   
    12.51       0.1457E-2    0.9757       0.3231E-3    0.9884   
    12.53       0.1424E-2    0.9760       0.3200E-3    0.9885   
    12.55       0.1392E-2    0.9763       0.3169E-3    0.9885   
    12.57       0.1362E-2    0.9765       0.3139E-3    0.9886   
    12.59       0.1332E-2    0.9768       0.3109E-3    0.9887   
    12.61       0.1304E-2    0.9771       0.3080E-3    0.9887   
    12.63       0.1276E-2    0.9773       0.3051E-3    0.9888   
    12.65       0.1249E-2    0.9776       0.3022E-3    0.9888   
    12.67       0.1223E-2    0.9778       0.2994E-3    0.9889   
    12.69       0.1198E-2    0.9781       0.2966E-3    0.9890   
    12.71       0.1174E-2    0.9783       0.2939E-3    0.9890   
    12.73       0.1150E-2    0.9785       0.2912E-3    0.9891   
    12.75       0.1127E-2    0.9788       0.2885E-3    0.9891   
    12.77       0.1105E-2    0.9790       0.2859E-3    0.9892   
    12.79       0.1083E-2    0.9792       0.2833E-3    0.9893   
    12.81       0.1062E-2    0.9794       0.2807E-3    0.9893   
    12.83       0.1042E-2    0.9796       0.2782E-3    0.9894   
    12.85       0.1022E-2    0.9798       0.2757E-3    0.9894   
    12.87       0.1003E-2    0.9800       0.2732E-3    0.9895   
    12.89       0.9844E-3    0.9802       0.2708E-3    0.9895   
    12.91       0.9662E-3    0.9804       0.2684E-3    0.9896   
    12.93       0.9486E-3    0.9806       0.2661E-3    0.9896   
    12.95       0.9314E-3    0.9808       0.2637E-3    0.9897   
    12.97       0.9147E-3    0.9810       0.2614E-3    0.9897   
    12.99       0.8985E-3    0.9812       0.2591E-3    0.9898   
    13.01       0.8827E-3    0.9813       0.2569E-3    0.9898   
    13.03       0.8673E-3    0.9815       0.2547E-3    0.9899   
    13.05       0.8523E-3    0.9817       0.2525E-3    0.9899   
    13.07       0.8377E-3    0.9819       0.2503E-3    0.9900   
    13.09       0.8234E-3    0.9820       0.2482E-3    0.9900   
    13.11       0.8096E-3    0.9822       0.2461E-3    0.9901   
    13.13       0.7960E-3    0.9823       0.2440E-3    0.9901   
    13.15       0.7829E-3    0.9825       0.2420E-3    0.9902   
    13.17       0.7700E-3    0.9827       0.2399E-3    0.9902   
    13.19       0.7574E-3    0.9828       0.2379E-3    0.9903   
    13.21       0.7452E-3    0.9830       0.2360E-3    0.9903   
    13.23       0.7333E-3    0.9831       0.2340E-3    0.9904   
    13.25       0.7216E-3    0.9832       0.2321E-3    0.9904   
    13.27       0.7102E-3    0.9834       0.2302E-3    0.9905   
    13.29       0.6991E-3    0.9835       0.2283E-3    0.9905   
    13.31       0.6883E-3    0.9837       0.2264E-3    0.9906   
    13.33       0.6777E-3    0.9838       0.2246E-3    0.9906   
    13.35       0.6673E-3    0.9839       0.2228E-3    0.9907   
    13.37       0.6572E-3    0.9841       0.2210E-3    0.9907   
    13.39       0.6473E-3    0.9842       0.2192E-3    0.9907   
    13.41       0.6376E-3    0.9843       0.2174E-3    0.9908   
    13.43       0.6282E-3    0.9845       0.2157E-3    0.9908   
    13.45       0.6189E-3    0.9846       0.2140E-3    0.9909   
    13.47       0.6099E-3    0.9847       0.2123E-3    0.9909   
    13.49       0.6010E-3    0.9848       0.2106E-3    0.9910   
    13.51       0.5924E-3    0.9849       0.2090E-3    0.9910   
    13.53       0.5839E-3    0.9851       0.2073E-3    0.9910   
    13.55       0.5756E-3    0.9852       0.2057E-3    0.9911   
    13.57       0.5675E-3    0.9853       0.2041E-3    0.9911   
    13.59       0.5596E-3    0.9854       0.2025E-3    0.9912   
    13.61       0.5518E-3    0.9855       0.2010E-3    0.9912   
    13.63       0.5442E-3    0.9856       0.1994E-3    0.9912   
    13.65       0.5367E-3    0.9857       0.1979E-3    0.9913   
    13.67       0.5294E-3    0.9858       0.1964E-3    0.9913   
    13.69       0.5222E-3    0.9859       0.1949E-3    0.9914   
    13.71       0.5152E-3    0.9860       0.1934E-3    0.9914   
    13.73       0.5083E-3    0.9861       0.1919E-3    0.9914   
    13.75       0.5016E-3    0.9863       0.1905E-3    0.9915   
    13.77       0.4950E-3    0.9863       0.1891E-3    0.9915   
    13.79       0.4885E-3    0.9864       0.1877E-3    0.9916   
    13.81       0.4822E-3    0.9865       0.1863E-3    0.9916   
    13.83       0.4760E-3    0.9866       0.1849E-3    0.9916   
    13.85       0.4698E-3    0.9867       0.1835E-3    0.9917   
    13.87       0.4639E-3    0.9868       0.1822E-3    0.9917   
    13.89       0.4580E-3    0.9869       0.1808E-3    0.9917   
    13.91       0.4522E-3    0.9870       0.1795E-3    0.9918   
    13.93       0.4466E-3    0.9871       0.1782E-3    0.9918   
    13.95       0.4410E-3    0.9872       0.1769E-3    0.9918   
    13.97       0.4355E-3    0.9873       0.1756E-3    0.9919   
    13.99       0.4302E-3    0.9874       0.1743E-3    0.9919   
    14.01       0.4249E-3    0.9874       0.1731E-3    0.9920   
    14.03       0.4198E-3    0.9875       0.1718E-3    0.9920   
    14.05       0.4147E-3    0.9876       0.1706E-3    0.9920   
    14.07       0.4097E-3    0.9877       0.1694E-3    0.9921   
    14.09       0.4049E-3    0.9878       0.1682E-3    0.9921   
    14.11       0.4001E-3    0.9879       0.1670E-3    0.9921   
    14.13       0.3953E-3    0.9879       0.1658E-3    0.9922   
    14.15       0.3907E-3    0.9880       0.1646E-3    0.9922   
    14.17       0.3862E-3    0.9881       0.1635E-3    0.9922   
    14.19       0.3817E-3    0.9882       0.1623E-3    0.9923   
    14.21       0.3773E-3    0.9882       0.1612E-3    0.9923   
    14.23       0.3730E-3    0.9883       0.1601E-3    0.9923   
    14.25       0.3687E-3    0.9884       0.1590E-3    0.9924   
    14.27       0.3645E-3    0.9885       0.1579E-3    0.9924   
    14.29       0.3604E-3    0.9885       0.1568E-3    0.9924   
    14.31       0.3564E-3    0.9886       0.1557E-3    0.9924   
    14.33       0.3524E-3    0.9887       0.1546E-3    0.9925   
    14.35       0.3485E-3    0.9888       0.1536E-3    0.9925   
    14.37       0.3447E-3    0.9888       0.1525E-3    0.9925   
    14.39       0.3409E-3    0.9889       0.1515E-3    0.9926   
    14.41       0.3372E-3    0.9890       0.1505E-3    0.9926   
    14.43       0.3335E-3    0.9890       0.1495E-3    0.9926   
    14.45       0.3299E-3    0.9891       0.1485E-3    0.9927   
    14.47       0.3264E-3    0.9892       0.1475E-3    0.9927   
    14.49       0.3229E-3    0.9892       0.1465E-3    0.9927   
    14.51       0.3195E-3    0.9893       0.1455E-3    0.9927   
    14.53       0.3161E-3    0.9894       0.1445E-3    0.9928   
    14.55       0.3128E-3    0.9894       0.1436E-3    0.9928   
    14.57       0.3095E-3    0.9895       0.1426E-3    0.9928   
    14.59       0.3063E-3    0.9895       0.1417E-3    0.9929   
    14.61       0.3031E-3    0.9896       0.1408E-3    0.9929   
    14.63       0.3000E-3    0.9897       0.1398E-3    0.9929   
    14.65       0.2969E-3    0.9897       0.1389E-3    0.9929   
    14.67       0.2939E-3    0.9898       0.1380E-3    0.9930   
    14.69       0.2909E-3    0.9898       0.1371E-3    0.9930   
    14.71       0.2880E-3    0.9899       0.1362E-3    0.9930   
    14.73       0.2851E-3    0.9900       0.1353E-3    0.9931   
    14.75       0.2822E-3    0.9900       0.1345E-3    0.9931   
    14.77       0.2794E-3    0.9901       0.1336E-3    0.9931   
    14.79       0.2766E-3    0.9901       0.1328E-3    0.9931   
    14.81       0.2739E-3    0.9902       0.1319E-3    0.9932   
    14.83       0.2712E-3    0.9902       0.1311E-3    0.9932   
    14.85       0.2686E-3    0.9903       0.1302E-3    0.9932   
    14.87       0.2660E-3    0.9903       0.1294E-3    0.9932   
    14.89       0.2634E-3    0.9904       0.1286E-3    0.9933   
    14.91       0.2609E-3    0.9904       0.1278E-3    0.9933   
    14.93       0.2584E-3    0.9905       0.1270E-3    0.9933   
    14.95       0.2559E-3    0.9905       0.1262E-3    0.9933   
    14.97       0.2535E-3    0.9906       0.1254E-3    0.9934   
    14.99       0.2511E-3    0.9906       0.1246E-3    0.9934   
    15.02       0.2487E-3    0.9907       0.1238E-3    0.9934   
    15.04       0.2464E-3    0.9907       0.1231E-3    0.9934   
    15.06       0.2441E-3    0.9908       0.1223E-3    0.9935   
    15.08       0.2418E-3    0.9908       0.1216E-3    0.9935   
    15.10       0.2396E-3    0.9909       0.1208E-3    0.9935   
    15.12       0.2374E-3    0.9909       0.1201E-3    0.9935   
    15.14       0.2352E-3    0.9910       0.1193E-3    0.9936   
    15.16       0.2331E-3    0.9910       0.1186E-3    0.9936   
    15.18       0.2309E-3    0.9911       0.1179E-3    0.9936   
    15.20       0.2288E-3    0.9911       0.1172E-3    0.9936   
    15.22       0.2268E-3    0.9912       0.1165E-3    0.9937   
    15.24       0.2248E-3    0.9912       0.1158E-3    0.9937   
    15.26       0.2227E-3    0.9913       0.1151E-3    0.9937   
    15.28       0.2208E-3    0.9913       0.1144E-3    0.9937   
    15.30       0.2188E-3    0.9914       0.1137E-3    0.9938   
    15.32       0.2169E-3    0.9914       0.1130E-3    0.9938   
    15.34       0.2150E-3    0.9914       0.1124E-3    0.9938   
    15.36       0.2131E-3    0.9915       0.1117E-3    0.9938   
    15.38       0.2112E-3    0.9915       0.1110E-3    0.9938   
    15.40       0.2094E-3    0.9916       0.1104E-3    0.9939   
    15.42       0.2076E-3    0.9916       0.1097E-3    0.9939   
    15.44       0.2058E-3    0.9917       0.1091E-3    0.9939   
    15.46       0.2041E-3    0.9917       0.1084E-3    0.9939   
    15.48       0.2023E-3    0.9917       0.1078E-3    0.9940   
    15.50       0.2006E-3    0.9918       0.1072E-3    0.9940   
    15.52       0.1989E-3    0.9918       0.1065E-3    0.9940   
    15.54       0.1972E-3    0.9919       0.1059E-3    0.9940   
    15.56       0.1956E-3    0.9919       0.1053E-3    0.9940   
    15.58       0.1939E-3    0.9919       0.1047E-3    0.9941   
    15.60       0.1923E-3    0.9920       0.1041E-3    0.9941   
    15.62       0.1907E-3    0.9920       0.1035E-3    0.9941   
    15.64       0.1891E-3    0.9920       0.1029E-3    0.9941   
    15.66       0.1876E-3    0.9921       0.1023E-3    0.9941   
    15.68       0.1860E-3    0.9921       0.1017E-3    0.9942   
    15.70       0.1845E-3    0.9922       0.1012E-3    0.9942   
    15.72       0.1830E-3    0.9922       0.1006E-3    0.9942   
    15.74       0.1815E-3    0.9922       0.1000E-3    0.9942   
    15.76       0.1801E-3    0.9923       0.9945E-4    0.9942   
    15.78       0.1786E-3    0.9923       0.9889E-4    0.9943   
    15.80       0.1772E-3    0.9923       0.9834E-4    0.9943   
    15.82       0.1758E-3    0.9924       0.9779E-4    0.9943   
    15.84       0.1744E-3    0.9924       0.9724E-4    0.9943   
    15.86       0.1730E-3    0.9924       0.9670E-4    0.9943   
    15.88       0.1716E-3    0.9925       0.9616E-4    0.9944   
    15.90       0.1703E-3    0.9925       0.9563E-4    0.9944   
    15.92       0.1690E-3    0.9925       0.9510E-4    0.9944   
    15.94       0.1676E-3    0.9926       0.9457E-4    0.9944   
    15.96       0.1663E-3    0.9926       0.9405E-4    0.9944   
    15.98       0.1650E-3    0.9926       0.9353E-4    0.9945   
    16.00       0.1638E-3    0.9927       0.9302E-4    0.9945   
    16.02       0.1625E-3    0.9927       0.9251E-4    0.9945   
    16.04       0.1613E-3    0.9927       0.9200E-4    0.9945   
    16.06       0.1600E-3    0.9928       0.9150E-4    0.9945   
    16.08       0.1588E-3    0.9928       0.9100E-4    0.9945   
    16.10       0.1576E-3    0.9928       0.9051E-4    0.9946   
    16.12       0.1564E-3    0.9929       0.9002E-4    0.9946   
    16.14       0.1552E-3    0.9929       0.8954E-4    0.9946   
    16.16       0.1541E-3    0.9929       0.8905E-4    0.9946   
    16.18       0.1529E-3    0.9930       0.8857E-4    0.9946   
    16.20       0.1518E-3    0.9930       0.8810E-4    0.9947   
    16.22       0.1506E-3    0.9930       0.8763E-4    0.9947   
    16.24       0.1495E-3    0.9931       0.8716E-4    0.9947   
    16.26       0.1484E-3    0.9931       0.8670E-4    0.9947   
    16.28       0.1473E-3    0.9931       0.8623E-4    0.9947   
    16.30       0.1463E-3    0.9931       0.8578E-4    0.9947   
    16.32       0.1452E-3    0.9932       0.8532E-4    0.9948   
    16.34       0.1441E-3    0.9932       0.8487E-4    0.9948   
    16.36       0.1431E-3    0.9932       0.8443E-4    0.9948   
    16.38       0.1421E-3    0.9933       0.8398E-4    0.9948   
    16.40       0.1410E-3    0.9933       0.8354E-4    0.9948   
    16.42       0.1400E-3    0.9933       0.8311E-4    0.9948   
    16.44       0.1390E-3    0.9933       0.8267E-4    0.9949   
    16.46       0.1380E-3    0.9934       0.8224E-4    0.9949   
    16.48       0.1370E-3    0.9934       0.8181E-4    0.9949   
    16.50       0.1361E-3    0.9934       0.8139E-4    0.9949   
    16.52       0.1351E-3    0.9935       0.8097E-4    0.9949   
    16.54       0.1342E-3    0.9935       0.8055E-4    0.9949   
    16.56       0.1332E-3    0.9935       0.8014E-4    0.9950   
    16.58       0.1323E-3    0.9935       0.7972E-4    0.9950   
    16.60       0.1314E-3    0.9936       0.7931E-4    0.9950   
    16.62       0.1305E-3    0.9936       0.7891E-4    0.9950   
    16.64       0.1295E-3    0.9936       0.7851E-4    0.9950   
    16.66       0.1287E-3    0.9936       0.7810E-4    0.9950   
    16.68       0.1278E-3    0.9937       0.7771E-4    0.9951   
    16.70       0.1269E-3    0.9937       0.7731E-4    0.9951   
    16.72       0.1260E-3    0.9937       0.7692E-4    0.9951   
    16.74       0.1252E-3    0.9937       0.7653E-4    0.9951   
    16.76       0.1243E-3    0.9938       0.7615E-4    0.9951   
    16.78       0.1235E-3    0.9938       0.7576E-4    0.9951   
    16.80       0.1226E-3    0.9938       0.7538E-4    0.9951   
    16.82       0.1218E-3    0.9938       0.7501E-4    0.9952   
    16.84       0.1210E-3    0.9939       0.7463E-4    0.9952   
    16.86       0.1202E-3    0.9939       0.7426E-4    0.9952   
    16.88       0.1194E-3    0.9939       0.7389E-4    0.9952   
    16.90       0.1186E-3    0.9939       0.7352E-4    0.9952   
    16.92       0.1178E-3    0.9940       0.7316E-4    0.9952   
    16.94       0.1170E-3    0.9940       0.7279E-4    0.9952   
    16.96       0.1163E-3    0.9940       0.7244E-4    0.9953   
    16.98       0.1155E-3    0.9940       0.7208E-4    0.9953   
    17.00       0.1147E-3    0.9941       0.7172E-4    0.9953   
    17.02       0.1140E-3    0.9941       0.7137E-4    0.9953   
    17.04       0.1132E-3    0.9941       0.7102E-4    0.9953   
    17.06       0.1125E-3    0.9941       0.7067E-4    0.9953   
    17.08       0.1118E-3    0.9941       0.7033E-4    0.9953   
    17.10       0.1111E-3    0.9942       0.6999E-4    0.9954   
    17.12       0.1103E-3    0.9942       0.6965E-4    0.9954   
    17.14       0.1096E-3    0.9942       0.6931E-4    0.9954   
    17.16       0.1089E-3    0.9942       0.6897E-4    0.9954   
    17.18       0.1082E-3    0.9943       0.6864E-4    0.9954   
    17.20       0.1075E-3    0.9943       0.6831E-4    0.9954   
    17.22       0.1069E-3    0.9943       0.6798E-4    0.9954   
    17.24       0.1062E-3    0.9943       0.6766E-4    0.9955   
    17.26       0.1055E-3    0.9943       0.6733E-4    0.9955   
    17.28       0.1049E-3    0.9944       0.6701E-4    0.9955   
    17.30       0.1042E-3    0.9944       0.6669E-4    0.9955   
    17.32       0.1035E-3    0.9944       0.6637E-4    0.9955   
    17.34       0.1029E-3    0.9944       0.6606E-4    0.9955   
    17.36       0.1023E-3    0.9944       0.6574E-4    0.9955   
    17.38       0.1016E-3    0.9945       0.6543E-4    0.9956   
    17.40       0.1010E-3    0.9945       0.6512E-4    0.9956   
    17.42       0.1004E-3    0.9945       0.6482E-4    0.9956   
    17.44       0.9976E-4    0.9945       0.6451E-4    0.9956   
    17.46       0.9914E-4    0.9945       0.6421E-4    0.9956   
    17.48       0.9854E-4    0.9946       0.6391E-4    0.9956   
    17.50       0.9794E-4    0.9946       0.6361E-4    0.9956   
    17.52       0.9734E-4    0.9946       0.6331E-4    0.9956   
    17.54       0.9675E-4    0.9946       0.6302E-4    0.9957   
    17.56       0.9617E-4    0.9946       0.6272E-4    0.9957   
    17.58       0.9559E-4    0.9947       0.6243E-4    0.9957   
    17.60       0.9501E-4    0.9947       0.6214E-4    0.9957   
    17.62       0.9444E-4    0.9947       0.6185E-4    0.9957   
    17.64       0.9388E-4    0.9947       0.6157E-4    0.9957   
    17.66       0.9332E-4    0.9947       0.6128E-4    0.9957   
    17.68       0.9276E-4    0.9948       0.6100E-4    0.9957   
    17.70       0.9221E-4    0.9948       0.6072E-4    0.9958   
    17.72       0.9166E-4    0.9948       0.6044E-4    0.9958   
    17.74       0.9112E-4    0.9948       0.6017E-4    0.9958   
    17.76       0.9059E-4    0.9948       0.5989E-4    0.9958   
    17.78       0.9006E-4    0.9948       0.5962E-4    0.9958   
    17.80       0.8953E-4    0.9949       0.5935E-4    0.9958   
    17.82       0.8901E-4    0.9949       0.5908E-4    0.9958   
    17.84       0.8849E-4    0.9949       0.5881E-4    0.9958   
    17.86       0.8797E-4    0.9949       0.5855E-4    0.9958   
    17.88       0.8746E-4    0.9949       0.5828E-4    0.9959   
    17.90       0.8696E-4    0.9950       0.5802E-4    0.9959   
    17.92       0.8646E-4    0.9950       0.5776E-4    0.9959   
    17.94       0.8596E-4    0.9950       0.5750E-4    0.9959   
    17.96       0.8547E-4    0.9950       0.5724E-4    0.9959   
    17.98       0.8498E-4    0.9950       0.5699E-4    0.9959   
    18.00       0.8449E-4    0.9950       0.5673E-4    0.9959   
    18.02       0.8401E-4    0.9951       0.5648E-4    0.9959   
    18.04       0.8353E-4    0.9951       0.5623E-4    0.9960   
    18.06       0.8306E-4    0.9951       0.5598E-4    0.9960   
    18.08       0.8259E-4    0.9951       0.5573E-4    0.9960   
    18.10       0.8213E-4    0.9951       0.5548E-4    0.9960   
    18.12       0.8166E-4    0.9951       0.5524E-4    0.9960   
    18.14       0.8121E-4    0.9952       0.5499E-4    0.9960   
    18.16       0.8075E-4    0.9952       0.5475E-4    0.9960   
    18.18       0.8030E-4    0.9952       0.5451E-4    0.9960   
    18.20       0.7985E-4    0.9952       0.5427E-4    0.9960   
    18.22       0.7941E-4    0.9952       0.5403E-4    0.9961   
    18.24       0.7897E-4    0.9952       0.5380E-4    0.9961   
    18.26       0.7854E-4    0.9952       0.5356E-4    0.9961   
    18.28       0.7810E-4    0.9953       0.5333E-4    0.9961   
    18.30       0.7767E-4    0.9953       0.5310E-4    0.9961   
    18.32       0.7725E-4    0.9953       0.5287E-4    0.9961   
    18.34       0.7682E-4    0.9953       0.5264E-4    0.9961   
    18.36       0.7641E-4    0.9953       0.5241E-4    0.9961   
    18.38       0.7599E-4    0.9953       0.5219E-4    0.9961   
    18.40       0.7558E-4    0.9954       0.5196E-4    0.9961   
    18.42       0.7517E-4    0.9954       0.5174E-4    0.9962   
    18.44       0.7476E-4    0.9954       0.5152E-4    0.9962   
    18.46       0.7436E-4    0.9954       0.5129E-4    0.9962   
    18.48       0.7396E-4    0.9954       0.5108E-4    0.9962   
    18.50       0.7356E-4    0.9954       0.5086E-4    0.9962   
    18.52       0.7317E-4    0.9954       0.5064E-4    0.9962   
    18.54       0.7278E-4    0.9955       0.5042E-4    0.9962   
    18.56       0.7239E-4    0.9955       0.5021E-4    0.9962   
    18.58       0.7200E-4    0.9955       0.5000E-4    0.9962   
    18.60       0.7162E-4    0.9955       0.4979E-4    0.9962   
    18.62       0.7124E-4    0.9955       0.4958E-4    0.9963   
    18.64       0.7087E-4    0.9955       0.4937E-4    0.9963   
    18.66       0.7049E-4    0.9955       0.4916E-4    0.9963   
    18.68       0.7012E-4    0.9956       0.4895E-4    0.9963   
    18.70       0.6976E-4    0.9956       0.4875E-4    0.9963   
    18.72       0.6939E-4    0.9956       0.4854E-4    0.9963   
    18.74       0.6903E-4    0.9956       0.4834E-4    0.9963   
    18.76       0.6867E-4    0.9956       0.4814E-4    0.9963   
    18.78       0.6831E-4    0.9956       0.4794E-4    0.9963   
    18.80       0.6796E-4    0.9956       0.4774E-4    0.9963   
    18.82       0.6761E-4    0.9957       0.4754E-4    0.9964   
    18.84       0.6726E-4    0.9957       0.4734E-4    0.9964   
    18.86       0.6691E-4    0.9957       0.4714E-4    0.9964   
    18.88       0.6657E-4    0.9957       0.4695E-4    0.9964   
    18.90       0.6623E-4    0.9957       0.4676E-4    0.9964   
    18.92       0.6589E-4    0.9957       0.4656E-4    0.9964   
    18.94       0.6555E-4    0.9957       0.4637E-4    0.9964   
    18.96       0.6522E-4    0.9957       0.4618E-4    0.9964   
    18.98       0.6489E-4    0.9958       0.4599E-4    0.9964   
    19.00       0.6456E-4    0.9958       0.4580E-4    0.9964   
    19.02       0.6423E-4    0.9958       0.4562E-4    0.9964   
    19.04       0.6391E-4    0.9958       0.4543E-4    0.9965   
    19.06       0.6359E-4    0.9958       0.4525E-4    0.9965   
    19.08       0.6327E-4    0.9958       0.4506E-4    0.9965   
    19.10       0.6295E-4    0.9958       0.4488E-4    0.9965   
    19.12       0.6264E-4    0.9959       0.4470E-4    0.9965   
    19.14       0.6233E-4    0.9959       0.4452E-4    0.9965   
    19.16       0.6201E-4    0.9959       0.4434E-4    0.9965   
    19.18       0.6171E-4    0.9959       0.4416E-4    0.9965   
    19.20       0.6140E-4    0.9959       0.4398E-4    0.9965   
    19.22       0.6110E-4    0.9959       0.4380E-4    0.9965   
    19.24       0.6080E-4    0.9959       0.4363E-4    0.9965   
    19.26       0.6050E-4    0.9959       0.4345E-4    0.9966   
    19.28       0.6020E-4    0.9959       0.4328E-4    0.9966   
    19.30       0.5990E-4    0.9960       0.4310E-4    0.9966   
    19.32       0.5961E-4    0.9960       0.4293E-4    0.9966   
    19.34       0.5932E-4    0.9960       0.4276E-4    0.9966   
    19.36       0.5903E-4    0.9960       0.4259E-4    0.9966   
    19.38       0.5874E-4    0.9960       0.4242E-4    0.9966   
    19.40       0.5846E-4    0.9960       0.4225E-4    0.9966   
    19.42       0.5818E-4    0.9960       0.4209E-4    0.9966   
    19.44       0.5789E-4    0.9960       0.4192E-4    0.9966   
    19.46       0.5762E-4    0.9961       0.4176E-4    0.9966   
    19.48       0.5734E-4    0.9961       0.4159E-4    0.9966   
    19.50       0.5706E-4    0.9961       0.4143E-4    0.9967   
    19.52       0.5679E-4    0.9961       0.4126E-4    0.9967   
    19.54       0.5652E-4    0.9961       0.4110E-4    0.9967   
    19.56       0.5625E-4    0.9961       0.4094E-4    0.9967   
    19.58       0.5598E-4    0.9961       0.4078E-4    0.9967   
    19.60       0.5571E-4    0.9961       0.4062E-4    0.9967   
    19.62       0.5545E-4    0.9961       0.4046E-4    0.9967   
    19.64       0.5519E-4    0.9962       0.4031E-4    0.9967   
    19.66       0.5493E-4    0.9962       0.4015E-4    0.9967   
    19.68       0.5467E-4    0.9962       0.3999E-4    0.9967   
    19.70       0.5441E-4    0.9962       0.3984E-4    0.9967   
    19.72       0.5416E-4    0.9962       0.3969E-4    0.9967   
    19.74       0.5390E-4    0.9962       0.3953E-4    0.9968   
    19.76       0.5365E-4    0.9962       0.3938E-4    0.9968   
    19.78       0.5340E-4    0.9962       0.3923E-4    0.9968   
    19.80       0.5315E-4    0.9962       0.3908E-4    0.9968   
    19.82       0.5290E-4    0.9963       0.3893E-4    0.9968   
    19.84       0.5266E-4    0.9963       0.3878E-4    0.9968   
    19.86       0.5242E-4    0.9963       0.3863E-4    0.9968   
    19.88       0.5217E-4    0.9963       0.3848E-4    0.9968   
    19.90       0.5193E-4    0.9963       0.3834E-4    0.9968   
    19.92       0.5169E-4    0.9963       0.3819E-4    0.9968   
    19.94       0.5146E-4    0.9963       0.3805E-4    0.9968   
    19.96       0.5122E-4    0.9963       0.3790E-4    0.9968   
    19.98       0.5099E-4    0.9963       0.3776E-4    0.9968   
    20.00       0.5075E-4    0.9963       0.3761E-4    0.9969   
# 
# 04/14/2017 at 11:11 YAMBO_RT @ anomaly [start]
# 04/14/2017 at 11:11                    [end]
#  
# Timing   [Min/Max/Average]: 01s/01s/01s
#
# .-Input file : yambo.in
# | optics                       # [R OPT] Optics
# | bse                          # [R BSE] Bethe Salpeter Equation.
# | bsk                          # [R BSK] Bethe Salpeter Equation kernel
# | bss                          # [R BSS] Bethe Salpeter Equation solver
# | tddft                        # [R   K] Use TDDFT kernel
# | BoseTemp= 0.000000     eV    # Bosonic Temperature
# | X_Threads= 1                 # [OPENMP/X] Number of threads for response functions
# | DIP_Threads= 1               # [OPENMP/X] Number of threads for dipoles
# | K_Threads= 1                 # [OPENMP/BSK] Number of threads for response functions
# | BSEmod= "coupling"           # [BSE] resonant/retarded/coupling
# | BSKmod= "ALDA"               # [BSE] IP/Hartree/HF/ALDA/SEX/BSfxc
# | BSSmod= "d"                  # [BSS] (h)aydock/(d)iagonalization/(i)nversion/(t)ddft`
# | BSENGexx=  39127       RL    # [BSK] Exchange components
# | % BEnRange
# |   0.00000 | 20.00000 | eV    # [BSS] Energy range
# | %
# | % BDmRange
# |   0.10000 |  0.10000 | eV    # [BSS] Damping range
# | %
# | BEnSteps= 1000               # [BSS] Energy steps
# | % BLongDir
# | 0.1000E-4 | 0.000    | 0.000    |        # [BSS] [cc] Electric Field
# | %
# | % BSEBands
# |   1 | 10 |                   # [BSK] Bands range
# | %
