#                                                           
#  **    **    **     ****     ****  ******     *******     
# //**  **    ****   /**/**   **/** /*////**   **/////**    
#  //****    **//**  /**//** ** /** /*   /**  **     //**   
#   //**    **  //** /** //***  /** /******  /**      /**   
#    /**   **********/**  //*   /** /*//// **/**      /**   
#    /**  /**//////**/**   /    /** /*    /**//**     **    
#    /**  /**     /**/**        /** /*******  //*******     
#    //   //      // //         //  ///////    ///////      
#                                                           
#        Version 4.2.0 Revision 14456 Hash cc1a9b3          
#                  MPI+SLK+OpenMP Build                     
#                http://www.yambo-code.org                  
#
# Absorption @ Q(1) [q->0 direction] :0.1000E-4  0.000     0.000   
#
#
# - Energies      are Teter 93(XC)
# - Wavefunctions are Teter 93(XC)
#
# - The Green`s function is Retarded -
# - Using the Length Gauge -
# - [r,Vnl] *is* included -
#
#   BSK|Identifier              :6934
#      |Dimension               :9
#      |Bands                   :1 - 10
#      |Exchange           [res]: yes
#      |Correlation        [res]: no
#      |Kernel`s coupling       : yes
#      |Exchange           [cpl]: yes
#      |Correlation        [cpl]: no
#      |W interaction is bare   : no
#      |ALDA kernel in R-space  : no
#      |RL vectors    [exchange]:39127
#      |E/h energy range    [ev]:-1.000000 - -1.000000
#      |Coupling range     [o/o]: 100.0000 -  100.0000
#
#    E/ev[1]      EPS-Im[2]    EPS-Re[3]    EPSo-Im[4]   EPSo-Re[5]
#
    6.000       0.1256E-3     1.010       0.1545E-2     1.037   
    6.020       0.1267E-3     1.010       0.1577E-2     1.037   
    6.040       0.1278E-3     1.010       0.1610E-2     1.037   
    6.060       0.1289E-3     1.010       0.1643E-2     1.038   
    6.080       0.1300E-3     1.010       0.1678E-2     1.038   
    6.100       0.1312E-3     1.010       0.1714E-2     1.038   
    6.120       0.1323E-3     1.010       0.1751E-2     1.039   
    6.140       0.1335E-3     1.010       0.1790E-2     1.039   
    6.160       0.1346E-3     1.010       0.1829E-2     1.039   
    6.180       0.1358E-3     1.011       0.1870E-2     1.040   
    6.200       0.1370E-3     1.011       0.1912E-2     1.040   
    6.220       0.1383E-3     1.011       0.1956E-2     1.040   
    6.240       0.1395E-3     1.011       0.2001E-2     1.041   
    6.261       0.1407E-3     1.011       0.2047E-2     1.041   
    6.281       0.1420E-3     1.011       0.2095E-2     1.042   
    6.301       0.1433E-3     1.011       0.2145E-2     1.042   
    6.321       0.1446E-3     1.011       0.2197E-2     1.042   
    6.341       0.1459E-3     1.011       0.2250E-2     1.043   
    6.361       0.1472E-3     1.011       0.2306E-2     1.043   
    6.381       0.1486E-3     1.011       0.2363E-2     1.044   
    6.401       0.1499E-3     1.011       0.2423E-2     1.044   
    6.421       0.1513E-3     1.011       0.2485E-2     1.045   
    6.441       0.1527E-3     1.011       0.2549E-2     1.045   
    6.461       0.1541E-3     1.011       0.2615E-2     1.046   
    6.481       0.1555E-3     1.011       0.2685E-2     1.046   
    6.501       0.1570E-3     1.011       0.2757E-2     1.047   
    6.521       0.1585E-3     1.011       0.2832E-2     1.047   
    6.541       0.1600E-3     1.011       0.2910E-2     1.048   
    6.561       0.1615E-3     1.011       0.2991E-2     1.049   
    6.581       0.1630E-3     1.011       0.3076E-2     1.049   
    6.601       0.1646E-3     1.011       0.3164E-2     1.050   
    6.621       0.1661E-3     1.011       0.3256E-2     1.050   
    6.641       0.1677E-3     1.011       0.3352E-2     1.051   
    6.661       0.1693E-3     1.011       0.3452E-2     1.052   
    6.681       0.1710E-3     1.011       0.3557E-2     1.052   
    6.701       0.1726E-3     1.011       0.3667E-2     1.053   
    6.721       0.1743E-3     1.011       0.3782E-2     1.054   
    6.741       0.1760E-3     1.011       0.3902E-2     1.055   
    6.762       0.1778E-3     1.011       0.4028E-2     1.055   
    6.782       0.1795E-3     1.011       0.4160E-2     1.056   
    6.802       0.1813E-3     1.011       0.4299E-2     1.057   
    6.822       0.1831E-3     1.012       0.4444E-2     1.058   
    6.842       0.1850E-3     1.012       0.4597E-2     1.059   
    6.862       0.1868E-3     1.012       0.4758E-2     1.060   
    6.882       0.1887E-3     1.012       0.4928E-2     1.061   
    6.902       0.1907E-3     1.012       0.5107E-2     1.062   
    6.922       0.1926E-3     1.012       0.5295E-2     1.063   
    6.942       0.1946E-3     1.012       0.5494E-2     1.064   
    6.962       0.1966E-3     1.012       0.5705E-2     1.065   
    6.982       0.1986E-3     1.012       0.5928E-2     1.066   
    7.002       0.2007E-3     1.012       0.6163E-2     1.067   
    7.022       0.2028E-3     1.012       0.6414E-2     1.069   
    7.042       0.2050E-3     1.012       0.6679E-2     1.070   
    7.062       0.2071E-3     1.012       0.6962E-2     1.071   
    7.082       0.2094E-3     1.012       0.7262E-2     1.073   
    7.102       0.2116E-3     1.012       0.7582E-2     1.074   
    7.122       0.2139E-3     1.012       0.7924E-2     1.075   
    7.142       0.2162E-3     1.012       0.8289E-2     1.077   
    7.162       0.2186E-3     1.012       0.8680E-2     1.079   
    7.182       0.2210E-3     1.012       0.9099E-2     1.080   
    7.202       0.2234E-3     1.012       0.9548E-2     1.082   
    7.222       0.2259E-3     1.012       0.1003E-1     1.084   
    7.242       0.2284E-3     1.012       0.1055E-1     1.086   
    7.263       0.2310E-3     1.012       0.1112E-1     1.088   
    7.283       0.2336E-3     1.012       0.1172E-1     1.090   
    7.303       0.2363E-3     1.013       0.1238E-1     1.093   
    7.323       0.2390E-3     1.013       0.1310E-1     1.095   
    7.343       0.2417E-3     1.013       0.1388E-1     1.098   
    7.363       0.2445E-3     1.013       0.1473E-1     1.101   
    7.383       0.2474E-3     1.013       0.1566E-1     1.103   
    7.403       0.2503E-3     1.013       0.1668E-1     1.107   
    7.423       0.2533E-3     1.013       0.1780E-1     1.110   
    7.443       0.2563E-3     1.013       0.1904E-1     1.113   
    7.463       0.2594E-3     1.013       0.2040E-1     1.117   
    7.483       0.2625E-3     1.013       0.2193E-1     1.121   
    7.503       0.2657E-3     1.013       0.2362E-1     1.125   
    7.523       0.2690E-3     1.013       0.2552E-1     1.130   
    7.543       0.2723E-3     1.013       0.2765E-1     1.135   
    7.563       0.2757E-3     1.013       0.3005E-1     1.140   
    7.583       0.2792E-3     1.013       0.3277E-1     1.146   
    7.603       0.2827E-3     1.013       0.3588E-1     1.152   
    7.623       0.2863E-3     1.013       0.3943E-1     1.158   
    7.643       0.2900E-3     1.013       0.4353E-1     1.166   
    7.663       0.2938E-3     1.013       0.4829E-1     1.173   
    7.683       0.2976E-3     1.014       0.5384E-1     1.182   
    7.703       0.3015E-3     1.014       0.6037E-1     1.191   
    7.723       0.3055E-3     1.014       0.6810E-1     1.202   
    7.743       0.3096E-3     1.014       0.7736E-1     1.213   
    7.764       0.3138E-3     1.014       0.8852E-1     1.225   
    7.784       0.3181E-3     1.014       0.1021        1.238   
    7.804       0.3225E-3     1.014       0.1188        1.253   
    7.824       0.3270E-3     1.014       0.1396        1.268   
    7.844       0.3316E-3     1.014       0.1656        1.284   
    7.864       0.3363E-3     1.014       0.1984        1.300   
    7.884       0.3411E-3     1.014       0.2399        1.313   
    7.904       0.3461E-3     1.014       0.2923        1.322   
    7.924       0.3511E-3     1.014       0.3570        1.321   
    7.944       0.3563E-3     1.014       0.4335        1.301   
    7.964       0.3616E-3     1.014       0.5157        1.254   
    7.984       0.3671E-3     1.015       0.5890        1.172   
    8.004       0.3727E-3     1.015       0.6319        1.057   
    8.024       0.3784E-3     1.015       0.6275       0.9311   
    8.044       0.3843E-3     1.015       0.5777       0.8212   
    8.064       0.3904E-3     1.015       0.5014       0.7450   
    8.084       0.3966E-3     1.015       0.4194       0.7034   
    8.104       0.4030E-3     1.015       0.3448       0.6880   
    8.124       0.4096E-3     1.015       0.2823       0.6889   
    8.144       0.4164E-3     1.015       0.2320       0.6988   
    8.164       0.4234E-3     1.015       0.1921       0.7129   
    8.184       0.4306E-3     1.015       0.1606       0.7286   
    8.204       0.4380E-3     1.015       0.1356       0.7445   
    8.224       0.4456E-3     1.015       0.1157       0.7597   
    8.244       0.4535E-3     1.016       0.9955E-1    0.7739   
    8.265       0.4617E-3     1.016       0.8643E-1    0.7871   
    8.285       0.4701E-3     1.016       0.7564E-1    0.7992   
    8.305       0.4787E-3     1.016       0.6668E-1    0.8102   
    8.325       0.4877E-3     1.016       0.5918E-1    0.8203   
    8.345       0.4970E-3     1.016       0.5284E-1    0.8296   
    8.365       0.5066E-3     1.016       0.4744E-1    0.8380   
    8.385       0.5165E-3     1.016       0.4281E-1    0.8458   
    8.405       0.5269E-3     1.016       0.3882E-1    0.8529   
    8.425       0.5375E-3     1.016       0.3535E-1    0.8595   
    8.445       0.5486E-3     1.017       0.3232E-1    0.8655   
    8.465       0.5602E-3     1.017       0.2966E-1    0.8711   
    8.485       0.5721E-3     1.017       0.2731E-1    0.8763   
    8.505       0.5846E-3     1.017       0.2523E-1    0.8811   
    8.525       0.5976E-3     1.017       0.2337E-1    0.8856   
    8.545       0.6111E-3     1.017       0.2171E-1    0.8898   
    8.565       0.6252E-3     1.017       0.2022E-1    0.8938   
    8.585       0.6399E-3     1.017       0.1888E-1    0.8974   
    8.605       0.6553E-3     1.018       0.1767E-1    0.9009   
    8.625       0.6713E-3     1.018       0.1657E-1    0.9041   
    8.645       0.6881E-3     1.018       0.1557E-1    0.9072   
    8.665       0.7058E-3     1.018       0.1466E-1    0.9101   
    8.685       0.7243E-3     1.018       0.1383E-1    0.9128   
    8.705       0.7437E-3     1.018       0.1306E-1    0.9154   
    8.725       0.7641E-3     1.018       0.1236E-1    0.9178   
    8.745       0.7856E-3     1.019       0.1172E-1    0.9201   
    8.766       0.8083E-3     1.019       0.1112E-1    0.9223   
    8.786       0.8323E-3     1.019       0.1057E-1    0.9244   
    8.806       0.8576E-3     1.019       0.1006E-1    0.9265   
    8.826       0.8844E-3     1.019       0.9592E-2    0.9284   
    8.846       0.9128E-3     1.019       0.9154E-2    0.9302   
    8.866       0.9430E-3     1.020       0.8746E-2    0.9319   
    8.886       0.9752E-3     1.020       0.8367E-2    0.9336   
    8.906       0.1009E-2     1.020       0.8013E-2    0.9352   
    8.926       0.1046E-2     1.020       0.7682E-2    0.9367   
    8.946       0.1085E-2     1.020       0.7373E-2    0.9382   
    8.966       0.1127E-2     1.021       0.7084E-2    0.9396   
    8.986       0.1172E-2     1.021       0.6813E-2    0.9410   
    9.006       0.1221E-2     1.021       0.6560E-2    0.9423   
    9.026       0.1273E-2     1.021       0.6322E-2    0.9436   
    9.046       0.1330E-2     1.021       0.6099E-2    0.9448   
    9.066       0.1392E-2     1.022       0.5889E-2    0.9460   
    9.086       0.1459E-2     1.022       0.5693E-2    0.9471   
    9.106       0.1532E-2     1.022       0.5508E-2    0.9482   
    9.126       0.1612E-2     1.023       0.5335E-2    0.9493   
    9.146       0.1700E-2     1.023       0.5173E-2    0.9503   
    9.166       0.1797E-2     1.023       0.5020E-2    0.9513   
    9.186       0.1904E-2     1.024       0.4878E-2    0.9523   
    9.206       0.2024E-2     1.024       0.4745E-2    0.9532   
    9.226       0.2157E-2     1.024       0.4620E-2    0.9542   
    9.246       0.2306E-2     1.025       0.4505E-2    0.9551   
    9.267       0.2474E-2     1.025       0.4398E-2    0.9559   
    9.287       0.2665E-2     1.026       0.4299E-2    0.9568   
    9.307       0.2882E-2     1.026       0.4208E-2    0.9576   
    9.327       0.3130E-2     1.027       0.4126E-2    0.9584   
    9.347       0.3416E-2     1.027       0.4052E-2    0.9593   
    9.367       0.3749E-2     1.028       0.3986E-2    0.9600   
    9.387       0.4138E-2     1.029       0.3929E-2    0.9608   
    9.407       0.4596E-2     1.029       0.3882E-2    0.9616   
    9.427       0.5141E-2     1.030       0.3844E-2    0.9623   
    9.447       0.5794E-2     1.031       0.3817E-2    0.9631   
    9.467       0.6586E-2     1.032       0.3801E-2    0.9638   
    9.487       0.7554E-2     1.033       0.3797E-2    0.9646   
    9.507       0.8751E-2     1.034       0.3808E-2    0.9653   
    9.527       0.1024E-1     1.035       0.3835E-2    0.9660   
    9.547       0.1212E-1     1.036       0.3881E-2    0.9668   
    9.567       0.1449E-1     1.037       0.3949E-2    0.9675   
    9.587       0.1749E-1     1.038       0.4042E-2    0.9683   
    9.607       0.2122E-1     1.038       0.4167E-2    0.9690   
    9.627       0.2572E-1     1.038       0.4331E-2    0.9698   
    9.647       0.3074E-1     1.036       0.4542E-2    0.9706   
    9.667       0.3558E-1     1.031       0.4812E-2    0.9714   
    9.687       0.3901E-1     1.025       0.5158E-2    0.9722   
    9.707       0.3978E-1     1.017       0.5600E-2    0.9730   
    9.727       0.3758E-1     1.010       0.6167E-2    0.9739   
    9.747       0.3328E-1     1.005       0.6896E-2    0.9747   
    9.768       0.2825E-1     1.002       0.7832E-2    0.9755   
    9.788       0.2347E-1     1.001       0.9030E-2    0.9762   
     9.80762      0.01937      1.00063      0.01054      0.97671
     9.82766      0.01605      1.00126      0.01238      0.97683
     9.84770      0.01341      1.00223      0.01447      0.97632
     9.86774      0.01133      1.00334      0.01653      0.97495
    9.888       0.9685E-2     1.004       0.1805E-1    0.9726   
    9.908       0.8378E-2     1.006       0.1849E-1    0.9697   
    9.928       0.7331E-2     1.007       0.1764E-1    0.9669   
    9.948       0.6484E-2     1.008       0.1583E-1    0.9648   
    9.968       0.5794E-2     1.009       0.1365E-1    0.9636   
    9.988       0.5226E-2     1.010       0.1154E-1    0.9633   
    10.01       0.4755E-2     1.010       0.9709E-2    0.9634   
    10.03       0.4362E-2     1.011       0.8211E-2    0.9639   
    10.05       0.4032E-2     1.012       0.7013E-2    0.9646   
    10.07       0.3753E-2     1.013       0.6061E-2    0.9653   
    10.09       0.3516E-2     1.013       0.5303E-2    0.9660   
    10.11       0.3315E-2     1.014       0.4693E-2    0.9667   
    10.13       0.3142E-2     1.014       0.4199E-2    0.9673   
    10.15       0.2995E-2     1.015       0.3794E-2    0.9680   
    10.17       0.2868E-2     1.016       0.3459E-2    0.9686   
    10.19       0.2760E-2     1.016       0.3177E-2    0.9691   
    10.21       0.2667E-2     1.017       0.2939E-2    0.9697   
    10.23       0.2587E-2     1.017       0.2736E-2    0.9702   
    10.25       0.2520E-2     1.018       0.2560E-2    0.9707   
    10.27       0.2463E-2     1.018       0.2407E-2    0.9711   
    10.29       0.2415E-2     1.019       0.2273E-2    0.9716   
    10.31       0.2375E-2     1.019       0.2154E-2    0.9720   
    10.33       0.2343E-2     1.020       0.2049E-2    0.9724   
    10.35       0.2318E-2     1.020       0.1954E-2    0.9728   
    10.37       0.2299E-2     1.020       0.1869E-2    0.9731   
    10.39       0.2286E-2     1.021       0.1792E-2    0.9735   
    10.41       0.2278E-2     1.021       0.1722E-2    0.9738   
    10.43       0.2274E-2     1.022       0.1658E-2    0.9742   
    10.45       0.2276E-2     1.022       0.1599E-2    0.9745   
    10.47       0.2282E-2     1.023       0.1544E-2    0.9748   
    10.49       0.2292E-2     1.023       0.1494E-2    0.9751   
    10.51       0.2305E-2     1.024       0.1447E-2    0.9754   
    10.53       0.2323E-2     1.024       0.1403E-2    0.9757   
    10.55       0.2345E-2     1.025       0.1363E-2    0.9759   
    10.57       0.2370E-2     1.025       0.1324E-2    0.9762   
    10.59       0.2399E-2     1.025       0.1288E-2    0.9765   
    10.61       0.2432E-2     1.026       0.1254E-2    0.9767   
    10.63       0.2468E-2     1.026       0.1222E-2    0.9770   
    10.65       0.2508E-2     1.027       0.1192E-2    0.9772   
    10.67       0.2551E-2     1.027       0.1163E-2    0.9774   
    10.69       0.2599E-2     1.028       0.1136E-2    0.9777   
    10.71       0.2650E-2     1.028       0.1110E-2    0.9779   
    10.73       0.2705E-2     1.029       0.1085E-2    0.9781   
    10.75       0.2764E-2     1.029       0.1061E-2    0.9783   
    10.77       0.2827E-2     1.030       0.1039E-2    0.9785   
    10.79       0.2895E-2     1.031       0.1017E-2    0.9787   
    10.81       0.2967E-2     1.031       0.9959E-3    0.9789   
    10.83       0.3045E-2     1.032       0.9759E-3    0.9791   
    10.85       0.3127E-2     1.032       0.9566E-3    0.9793   
    10.87       0.3214E-2     1.033       0.9381E-3    0.9795   
    10.89       0.3307E-2     1.034       0.9202E-3    0.9797   
    10.91       0.3406E-2     1.034       0.9030E-3    0.9799   
    10.93       0.3511E-2     1.035       0.8864E-3    0.9800   
    10.95       0.3623E-2     1.036       0.8703E-3    0.9802   
    10.97       0.3742E-2     1.036       0.8548E-3    0.9804   
    10.99       0.3868E-2     1.037       0.8398E-3    0.9806   
    11.01       0.4003E-2     1.038       0.8253E-3    0.9807   
    11.03       0.4146E-2     1.039       0.8112E-3    0.9809   
    11.05       0.4299E-2     1.040       0.7975E-3    0.9810   
    11.07       0.4462E-2     1.040       0.7843E-3    0.9812   
    11.09       0.4636E-2     1.041       0.7714E-3    0.9814   
    11.11       0.4821E-2     1.042       0.7590E-3    0.9815   
    11.13       0.5019E-2     1.043       0.7468E-3    0.9817   
    11.15       0.5232E-2     1.044       0.7350E-3    0.9818   
    11.17       0.5459E-2     1.045       0.7236E-3    0.9820   
    11.19       0.5703E-2     1.046       0.7124E-3    0.9821   
    11.21       0.5965E-2     1.048       0.7015E-3    0.9822   
    11.23       0.6247E-2     1.049       0.6909E-3    0.9824   
    11.25       0.6551E-2     1.050       0.6806E-3    0.9825   
    11.27       0.6878E-2     1.051       0.6706E-3    0.9827   
    11.29       0.7232E-2     1.053       0.6608E-3    0.9828   
    11.31       0.7616E-2     1.054       0.6512E-3    0.9829   
    11.33       0.8032E-2     1.056       0.6419E-3    0.9830   
    11.35       0.8484E-2     1.057       0.6327E-3    0.9832   
    11.37       0.8976E-2     1.059       0.6238E-3    0.9833   
    11.39       0.9514E-2     1.061       0.6151E-3    0.9834   
    11.41       0.1010E-1     1.062       0.6066E-3    0.9835   
    11.43       0.1075E-1     1.064       0.5983E-3    0.9837   
    11.45       0.1146E-1     1.067       0.5902E-3    0.9838   
    11.47       0.1225E-1     1.069       0.5823E-3    0.9839   
    11.49       0.1311E-1     1.071       0.5745E-3    0.9840   
    11.51       0.1408E-1     1.074       0.5669E-3    0.9841   
    11.53       0.1516E-1     1.076       0.5595E-3    0.9842   
    11.55       0.1636E-1     1.079       0.5522E-3    0.9844   
    11.57       0.1772E-1     1.082       0.5451E-3    0.9845   
    11.59       0.1924E-1     1.086       0.5381E-3    0.9846   
    11.61       0.2098E-1     1.089       0.5312E-3    0.9847   
    11.63       0.2295E-1     1.093       0.5245E-3    0.9848   
    11.65       0.2521E-1     1.098       0.5180E-3    0.9849   
    11.67       0.2782E-1     1.102       0.5115E-3    0.9850   
    11.69       0.3085E-1     1.107       0.5052E-3    0.9851   
    11.71       0.3438E-1     1.113       0.4990E-3    0.9852   
    11.73       0.3853E-1     1.119       0.4930E-3    0.9853   
    11.75       0.4346E-1     1.125       0.4870E-3    0.9854   
    11.77       0.4935E-1     1.132       0.4812E-3    0.9855   
    11.79       0.5645E-1     1.140       0.4754E-3    0.9856   
    11.81       0.6510E-1     1.149       0.4698E-3    0.9857   
    11.83       0.7574E-1     1.158       0.4643E-3    0.9858   
    11.85       0.8895E-1     1.168       0.4589E-3    0.9859   
    11.87       0.1055        1.178       0.4536E-3    0.9860   
    11.89       0.1264        1.188       0.4483E-3    0.9860   
    11.91       0.1528        1.197       0.4432E-3    0.9861   
    11.93       0.1861        1.202       0.4382E-3    0.9862   
    11.95       0.2273        1.201       0.4332E-3    0.9863   
    11.97       0.2760        1.189       0.4283E-3    0.9864   
    11.99       0.3284        1.159       0.4235E-3    0.9865   
    12.01       0.3753        1.107       0.4188E-3    0.9866   
    12.03       0.4028        1.034       0.4142E-3    0.9866   
    12.05       0.4002       0.9537       0.4097E-3    0.9867   
    12.07       0.3687       0.8835       0.4052E-3    0.9868   
    12.09       0.3201       0.8348       0.4008E-3    0.9869   
    12.11       0.2678       0.8081       0.3965E-3    0.9870   
    12.13       0.2202       0.7982       0.3922E-3    0.9871   
    12.15       0.1803       0.7987       0.3881E-3    0.9871   
    12.17       0.1481       0.8050       0.3839E-3    0.9872   
    12.19       0.1227       0.8140       0.3799E-3    0.9873   
    12.21       0.1026       0.8240       0.3759E-3    0.9874   
    12.23       0.8660E-1    0.8341       0.3720E-3    0.9874   
    12.25       0.7385E-1    0.8438       0.3681E-3    0.9875   
    12.27       0.6356E-1    0.8529       0.3643E-3    0.9876   
    12.29       0.5518E-1    0.8613       0.3606E-3    0.9877   
    12.31       0.4829E-1    0.8691       0.3569E-3    0.9877   
    12.33       0.4257E-1    0.8761       0.3533E-3    0.9878   
    12.35       0.3778E-1    0.8826       0.3497E-3    0.9879   
    12.37       0.3373E-1    0.8885       0.3462E-3    0.9879   
    12.39       0.3028E-1    0.8939       0.3428E-3    0.9880   
    12.41       0.2733E-1    0.8988       0.3394E-3    0.9881   
    12.43       0.2478E-1    0.9033       0.3360E-3    0.9881   
    12.45       0.2256E-1    0.9075       0.3327E-3    0.9882   
    12.47       0.2063E-1    0.9114       0.3294E-3    0.9883   
    12.49       0.1893E-1    0.9150       0.3262E-3    0.9883   
    12.51       0.1743E-1    0.9183       0.3231E-3    0.9884   
    12.53       0.1609E-1    0.9214       0.3199E-3    0.9885   
    12.55       0.1491E-1    0.9242       0.3169E-3    0.9885   
    12.57       0.1385E-1    0.9269       0.3138E-3    0.9886   
    12.59       0.1289E-1    0.9294       0.3108E-3    0.9887   
    12.61       0.1204E-1    0.9318       0.3079E-3    0.9887   
    12.63       0.1126E-1    0.9340       0.3050E-3    0.9888   
    12.65       0.1056E-1    0.9360       0.3021E-3    0.9888   
    12.67       0.9916E-2    0.9380       0.2993E-3    0.9889   
    12.69       0.9332E-2    0.9398       0.2965E-3    0.9890   
    12.71       0.8798E-2    0.9416       0.2938E-3    0.9890   
    12.73       0.8308E-2    0.9432       0.2911E-3    0.9891   
    12.75       0.7858E-2    0.9447       0.2884E-3    0.9891   
    12.77       0.7443E-2    0.9462       0.2858E-3    0.9892   
    12.79       0.7060E-2    0.9476       0.2832E-3    0.9893   
    12.81       0.6706E-2    0.9490       0.2806E-3    0.9893   
    12.83       0.6378E-2    0.9502       0.2781E-3    0.9894   
    12.85       0.6073E-2    0.9514       0.2756E-3    0.9894   
    12.87       0.5790E-2    0.9526       0.2731E-3    0.9895   
    12.89       0.5525E-2    0.9537       0.2707E-3    0.9895   
    12.91       0.5279E-2    0.9547       0.2683E-3    0.9896   
    12.93       0.5049E-2    0.9558       0.2659E-3    0.9896   
    12.95       0.4833E-2    0.9567       0.2636E-3    0.9897   
    12.97       0.4631E-2    0.9576       0.2613E-3    0.9897   
    12.99       0.4441E-2    0.9585       0.2590E-3    0.9898   
    13.01       0.4263E-2    0.9594       0.2568E-3    0.9898   
    13.03       0.4095E-2    0.9602       0.2546E-3    0.9899   
    13.05       0.3937E-2    0.9610       0.2524E-3    0.9899   
    13.07       0.3788E-2    0.9618       0.2502E-3    0.9900   
    13.09       0.3647E-2    0.9625       0.2481E-3    0.9900   
    13.11       0.3514E-2    0.9632       0.2460E-3    0.9901   
    13.13       0.3388E-2    0.9639       0.2439E-3    0.9901   
    13.15       0.3269E-2    0.9645       0.2418E-3    0.9902   
    13.17       0.3155E-2    0.9652       0.2398E-3    0.9902   
    13.19       0.3048E-2    0.9658       0.2378E-3    0.9903   
    13.21       0.2946E-2    0.9664       0.2358E-3    0.9903   
    13.23       0.2849E-2    0.9669       0.2339E-3    0.9904   
    13.25       0.2757E-2    0.9675       0.2319E-3    0.9904   
    13.27       0.2669E-2    0.9680       0.2300E-3    0.9905   
    13.29       0.2586E-2    0.9685       0.2282E-3    0.9905   
    13.31       0.2506E-2    0.9691       0.2263E-3    0.9906   
    13.33       0.2430E-2    0.9695       0.2245E-3    0.9906   
    13.35       0.2357E-2    0.9700       0.2226E-3    0.9907   
    13.37       0.2287E-2    0.9705       0.2208E-3    0.9907   
    13.39       0.2221E-2    0.9709       0.2191E-3    0.9907   
    13.41       0.2157E-2    0.9714       0.2173E-3    0.9908   
    13.43       0.2096E-2    0.9718       0.2156E-3    0.9908   
    13.45       0.2038E-2    0.9722       0.2139E-3    0.9909   
    13.47       0.1982E-2    0.9726       0.2122E-3    0.9909   
    13.49       0.1928E-2    0.9730       0.2105E-3    0.9910   
    13.52       0.1877E-2    0.9734       0.2088E-3    0.9910   
    13.54       0.1827E-2    0.9737       0.2072E-3    0.9910   
    13.56       0.1780E-2    0.9741       0.2056E-3    0.9911   
    13.58       0.1734E-2    0.9744       0.2040E-3    0.9911   
    13.60       0.1690E-2    0.9748       0.2024E-3    0.9912   
    13.62       0.1648E-2    0.9751       0.2008E-3    0.9912   
    13.64       0.1607E-2    0.9754       0.1993E-3    0.9913   
    13.66       0.1567E-2    0.9757       0.1978E-3    0.9913   
    13.68       0.1530E-2    0.9760       0.1963E-3    0.9913   
    13.70       0.1493E-2    0.9763       0.1948E-3    0.9914   
    13.72       0.1458E-2    0.9766       0.1933E-3    0.9914   
    13.74       0.1424E-2    0.9769       0.1918E-3    0.9914   
    13.76       0.1391E-2    0.9772       0.1904E-3    0.9915   
    13.78       0.1359E-2    0.9775       0.1889E-3    0.9915   
    13.80       0.1329E-2    0.9777       0.1875E-3    0.9916   
    13.82       0.1299E-2    0.9780       0.1861E-3    0.9916   
    13.84       0.1271E-2    0.9783       0.1847E-3    0.9916   
    13.86       0.1243E-2    0.9785       0.1834E-3    0.9917   
    13.88       0.1216E-2    0.9788       0.1820E-3    0.9917   
    13.90       0.1190E-2    0.9790       0.1807E-3    0.9917   
    13.92       0.1165E-2    0.9792       0.1794E-3    0.9918   
    13.94       0.1141E-2    0.9795       0.1781E-3    0.9918   
    13.96       0.1117E-2    0.9797       0.1768E-3    0.9919   
    13.98       0.1094E-2    0.9799       0.1755E-3    0.9919   
    14.00       0.1072E-2    0.9801       0.1742E-3    0.9919   
    14.02       0.1051E-2    0.9803       0.1729E-3    0.9920   
    14.04       0.1030E-2    0.9805       0.1717E-3    0.9920   
    14.06       0.1010E-2    0.9807       0.1705E-3    0.9920   
    14.08       0.9901E-3    0.9809       0.1693E-3    0.9921   
    14.10       0.9711E-3    0.9811       0.1680E-3    0.9921   
    14.12       0.9525E-3    0.9813       0.1669E-3    0.9921   
    14.14       0.9345E-3    0.9815       0.1657E-3    0.9922   
    14.16       0.9170E-3    0.9817       0.1645E-3    0.9922   
    14.18       0.9000E-3    0.9819       0.1634E-3    0.9922   
    14.20       0.8835E-3    0.9821       0.1622E-3    0.9923   
    14.22       0.8674E-3    0.9822       0.1611E-3    0.9923   
    14.24       0.8517E-3    0.9824       0.1600E-3    0.9923   
    14.26       0.8365E-3    0.9826       0.1588E-3    0.9924   
    14.28       0.8217E-3    0.9827       0.1577E-3    0.9924   
    14.30       0.8072E-3    0.9829       0.1567E-3    0.9924   
    14.32       0.7932E-3    0.9831       0.1556E-3    0.9925   
    14.34       0.7795E-3    0.9832       0.1545E-3    0.9925   
    14.36       0.7661E-3    0.9834       0.1535E-3    0.9925   
    14.38       0.7531E-3    0.9835       0.1524E-3    0.9925   
    14.40       0.7404E-3    0.9837       0.1514E-3    0.9926   
    14.42       0.7280E-3    0.9838       0.1504E-3    0.9926   
    14.44       0.7160E-3    0.9840       0.1493E-3    0.9926   
    14.46       0.7042E-3    0.9841       0.1483E-3    0.9927   
    14.48       0.6928E-3    0.9843       0.1473E-3    0.9927   
    14.50       0.6816E-3    0.9844       0.1463E-3    0.9927   
    14.52       0.6706E-3    0.9845       0.1454E-3    0.9928   
    14.54       0.6600E-3    0.9847       0.1444E-3    0.9928   
    14.56       0.6495E-3    0.9848       0.1434E-3    0.9928   
    14.58       0.6394E-3    0.9849       0.1425E-3    0.9928   
    14.60       0.6294E-3    0.9850       0.1416E-3    0.9929   
    14.62       0.6197E-3    0.9852       0.1406E-3    0.9929   
    14.64       0.6102E-3    0.9853       0.1397E-3    0.9929   
    14.66       0.6010E-3    0.9854       0.1388E-3    0.9930   
    14.68       0.5919E-3    0.9855       0.1379E-3    0.9930   
    14.70       0.5831E-3    0.9857       0.1370E-3    0.9930   
    14.72       0.5744E-3    0.9858       0.1361E-3    0.9930   
    14.74       0.5659E-3    0.9859       0.1352E-3    0.9931   
    14.76       0.5576E-3    0.9860       0.1344E-3    0.9931   
    14.78       0.5495E-3    0.9861       0.1335E-3    0.9931   
    14.80       0.5416E-3    0.9862       0.1326E-3    0.9931   
    14.82       0.5338E-3    0.9863       0.1318E-3    0.9932   
    14.84       0.5262E-3    0.9864       0.1310E-3    0.9932   
    14.86       0.5188E-3    0.9865       0.1301E-3    0.9932   
    14.88       0.5115E-3    0.9866       0.1293E-3    0.9932   
    14.90       0.5044E-3    0.9867       0.1285E-3    0.9933   
    14.92       0.4974E-3    0.9868       0.1277E-3    0.9933   
    14.94       0.4906E-3    0.9869       0.1269E-3    0.9933   
    14.96       0.4839E-3    0.9870       0.1261E-3    0.9933   
    14.98       0.4773E-3    0.9871       0.1253E-3    0.9934   
    15.00       0.4709E-3    0.9872       0.1245E-3    0.9934   
    15.02       0.4646E-3    0.9873       0.1237E-3    0.9934   
    15.04       0.4584E-3    0.9874       0.1230E-3    0.9934   
    15.06       0.4524E-3    0.9875       0.1222E-3    0.9935   
    15.08       0.4464E-3    0.9876       0.1215E-3    0.9935   
    15.10       0.4406E-3    0.9877       0.1207E-3    0.9935   
    15.12       0.4349E-3    0.9878       0.1200E-3    0.9935   
    15.14       0.4293E-3    0.9879       0.1192E-3    0.9936   
    15.16       0.4238E-3    0.9879       0.1185E-3    0.9936   
    15.18       0.4184E-3    0.9880       0.1178E-3    0.9936   
    15.20       0.4131E-3    0.9881       0.1171E-3    0.9936   
    15.22       0.4079E-3    0.9882       0.1164E-3    0.9937   
    15.24       0.4029E-3    0.9883       0.1157E-3    0.9937   
    15.26       0.3979E-3    0.9883       0.1150E-3    0.9937   
    15.28       0.3930E-3    0.9884       0.1143E-3    0.9937   
    15.30       0.3881E-3    0.9885       0.1136E-3    0.9938   
    15.32       0.3834E-3    0.9886       0.1129E-3    0.9938   
    15.34       0.3788E-3    0.9887       0.1122E-3    0.9938   
    15.36       0.3742E-3    0.9887       0.1116E-3    0.9938   
    15.38       0.3697E-3    0.9888       0.1109E-3    0.9938   
    15.40       0.3653E-3    0.9889       0.1103E-3    0.9939   
    15.42       0.3610E-3    0.9890       0.1096E-3    0.9939   
    15.44       0.3568E-3    0.9890       0.1090E-3    0.9939   
    15.46       0.3526E-3    0.9891       0.1083E-3    0.9939   
    15.48       0.3485E-3    0.9892       0.1077E-3    0.9940   
    15.50       0.3445E-3    0.9892       0.1071E-3    0.9940   
    15.52       0.3405E-3    0.9893       0.1064E-3    0.9940   
    15.54       0.3366E-3    0.9894       0.1058E-3    0.9940   
    15.56       0.3328E-3    0.9894       0.1052E-3    0.9940   
    15.58       0.3290E-3    0.9895       0.1046E-3    0.9941   
    15.60       0.3253E-3    0.9896       0.1040E-3    0.9941   
    15.62       0.3217E-3    0.9896       0.1034E-3    0.9941   
    15.64       0.3181E-3    0.9897       0.1028E-3    0.9941   
    15.66       0.3146E-3    0.9898       0.1022E-3    0.9941   
    15.68       0.3111E-3    0.9898       0.1016E-3    0.9942   
    15.70       0.3077E-3    0.9899       0.1011E-3    0.9942   
    15.72       0.3044E-3    0.9899       0.1005E-3    0.9942   
    15.74       0.3011E-3    0.9900       0.9991E-4    0.9942   
    15.76       0.2978E-3    0.9901       0.9935E-4    0.9942   
    15.78       0.2946E-3    0.9901       0.9879E-4    0.9943   
    15.80       0.2915E-3    0.9902       0.9823E-4    0.9943   
    15.82       0.2884E-3    0.9902       0.9768E-4    0.9943   
    15.84       0.2854E-3    0.9903       0.9714E-4    0.9943   
    15.86       0.2824E-3    0.9904       0.9659E-4    0.9943   
    15.88       0.2794E-3    0.9904       0.9606E-4    0.9944   
    15.90       0.2765E-3    0.9905       0.9552E-4    0.9944   
    15.92       0.2736E-3    0.9905       0.9499E-4    0.9944   
    15.94       0.2708E-3    0.9906       0.9447E-4    0.9944   
    15.96       0.2681E-3    0.9906       0.9395E-4    0.9944   
    15.98       0.2653E-3    0.9907       0.9343E-4    0.9945   
    16.00       0.2626E-3    0.9907       0.9292E-4    0.9945   
# 
# 04/14/2017 at 11:11 YAMBO_RT @ anomaly [start]
# 04/14/2017 at 11:11                    [end]
#  
# Timing   [Min/Max/Average]: 01s/01s/01s
#
# .-Input file : yambo.in
# | optics                       # [R OPT] Optics
# | bse                          # [R BSE] Bethe Salpeter Equation.
# | bsk                          # [R BSK] Bethe Salpeter Equation kernel
# | bss                          # [R BSS] Bethe Salpeter Equation solver
# | BoseTemp= 0.000000     eV    # Bosonic Temperature
# | X_Threads= 1                 # [OPENMP/X] Number of threads for response functions
# | DIP_Threads= 1               # [OPENMP/X] Number of threads for dipoles
# | K_Threads= 1                 # [OPENMP/BSK] Number of threads for response functions
# | BSEmod= "coupling"           # [BSE] resonant/retarded/coupling
# | BSKmod= "Hartree"            # [BSE] IP/Hartree/HF/ALDA/SEX/BSfxc
# | BSSmod= "d"                  # [BSS] (h)aydock/(d)iagonalization/(i)nversion/(t)ddft`
# | BSENGexx=  39127       RL    # [BSK] Exchange components
# | % BEnRange
# |   6.00000 | 16.00000 | eV    # [BSS] Energy range
# | %
# | % BDmRange
# |   0.10000 |  0.10000 | eV    # [BSS] Damping range
# | %
# | BEnSteps=  500               # [BSS] Energy steps
# | % BLongDir
# | 0.1000E-4 | 0.000    | 0.000    |        # [BSS] [cc] Electric Field
# | %
# | % BSEBands
# |   1 | 10 |                   # [BSK] Bands range
# | %
