#                                                           
#  __  __   ________   ___ __ __    _______   ______        
# /_/\/_/\ /_______/\ /__//_//_/\ /_______/\ /_____/\       
# \ \ \ \ \\::: _  \ \\::\| \| \ \\::: _  \ \\:::_ \ \      
#  \:\_\ \ \\::(_)  \ \\:.      \ \\::(_)  \/_\:\ \ \ \     
#   \::::_\/ \:: __  \ \\:.\-/\  \ \\::  _  \ \\:\ \ \ \    
#     \::\ \  \:.\ \  \ \\. \  \  \ \\::(_)  \ \\:\_\ \ \   
#      \__\/   \__\/\__\/ \__\/ \__\/ \_______\/ \_____\/   
#                                                           
#                                                           
#        Version 4.2.0 Revision 14319 Hash 8432f48          
#                  MPI+SLK+OpenMP Build                     
#                http://www.yambo-code.org                  
#
# EELS @ Q(1)  [q->0 direction]:0.1000E-4  0.000     0.000   
#
#
# - Energies      are Teter 93(XC)+Scissor
# - Wavefunctions are Teter 93(XC)
#
# - The Green`s function is Retarded -
# - Using the Length Gauge -
# - [r,Vnl] *is* included -
#
#   BSK|Identifier              :2874
#      |Dimension               :199
#      |Bands                   :1 - 200
#      |Exchange           [res]: yes
#      |Correlation        [res]: no
#      |Kernel`s coupling       : no
#      |Exchange           [cpl]: no
#      |Correlation        [cpl]: no
#      |W interaction is bare   : no
#      |ALDA kernel in R-space  : no
#      |RL vectors    [exchange]:9045
#      |E/h energy range    [ev]:-1.000000 - -1.000000
#      |Coupling range     [o/o]: 100.0000 -  100.0000
#
#  E/ev[1]    EEL-Im[2]  EEL-Re[3]  EELo-Im[4] EELo-Re[5]
#
  0.000000  -0.000000  -0.993520  -0.000000  -0.991367
 0.2002E-1  0.6193E-7  -.9935     0.1376E-6  -.9914   
 0.4004E-1  0.1239E-6  -.9935     0.2752E-6  -.9914   
 0.6006E-1  0.1858E-6  -.9935     0.4127E-6  -.9914   
 0.8008E-1  0.2477E-6  -.9935     0.5503E-6  -.9914   
 0.1001     0.3097E-6  -.9935     0.6879E-6  -.9914   
 0.1201     0.3716E-6  -.9935     0.8255E-6  -.9914   
 0.1401     0.4336E-6  -.9935     0.9632E-6  -.9914   
 0.1602     0.4955E-6  -.9935     0.1101E-5  -.9914   
 0.1802     0.5575E-6  -.9935     0.1238E-5  -.9914   
 0.2002     0.6195E-6  -.9935     0.1376E-5  -.9914   
 0.2202     0.6814E-6  -.9935     0.1514E-5  -.9914   
 0.2402     0.7434E-6  -.9935     0.1652E-5  -.9914   
 0.2603     0.8054E-6  -.9935     0.1789E-5  -.9914   
 0.2803     0.8674E-6  -.9935     0.1927E-5  -.9914   
 0.3003     0.9294E-6  -.9935     0.2065E-5  -.9914   
 0.3203     0.9915E-6  -.9935     0.2203E-5  -.9914   
 0.3403     0.1054E-5  -.9935     0.2341E-5  -.9914   
 0.3604     0.1116E-5  -.9935     0.2479E-5  -.9914   
 0.3804     0.1178E-5  -.9935     0.2617E-5  -.9914   
 0.4004     0.1240E-5  -.9935     0.2755E-5  -.9914   
 0.4204     0.1302E-5  -.9935     0.2893E-5  -.9914   
 0.4404     0.1364E-5  -.9935     0.3031E-5  -.9914   
 0.4605     0.1426E-5  -.9935     0.3170E-5  -.9914   
 0.4805     0.1488E-5  -.9935     0.3308E-5  -.9914   
 0.5005     0.1550E-5  -.9935     0.3446E-5  -.9914   
 0.5205     0.1613E-5  -.9935     0.3585E-5  -.9914   
 0.5405     0.1675E-5  -.9935     0.3723E-5  -.9914   
 0.5606     0.1737E-5  -.9935     0.3862E-5  -.9914   
 0.5806     0.1799E-5  -.9935     0.4000E-5  -.9914   
 0.6006     0.1861E-5  -.9935     0.4139E-5  -.9914   
 0.6206     0.1924E-5  -.9935     0.4278E-5  -.9914   
 0.6406     0.1986E-5  -.9935     0.4417E-5  -.9914   
 0.6607     0.2048E-5  -.9935     0.4556E-5  -.9914   
 0.6807     0.2111E-5  -.9935     0.4695E-5  -.9914   
 0.7007     0.2173E-5  -.9935     0.4834E-5  -.9914   
 0.7207     0.2236E-5  -.9935     0.4973E-5  -.9913   
 0.7407     0.2298E-5  -.9935     0.5113E-5  -.9913   
 0.7608     0.2361E-5  -.9935     0.5252E-5  -.9913   
 0.7808     0.2423E-5  -.9935     0.5392E-5  -.9913   
 0.8008     0.2486E-5  -.9935     0.5531E-5  -.9913   
 0.8208     0.2548E-5  -.9935     0.5671E-5  -.9913   
 0.8408     0.2611E-5  -.9935     0.5811E-5  -.9913   
 0.8609     0.2673E-5  -.9935     0.5951E-5  -.9913   
 0.8809     0.2736E-5  -.9935     0.6091E-5  -.9913   
 0.9009     0.2799E-5  -.9935     0.6231E-5  -.9913   
 0.9209     0.2862E-5  -.9935     0.6372E-5  -.9913   
 0.9409     0.2924E-5  -.9935     0.6512E-5  -.9913   
 0.9610     0.2987E-5  -.9935     0.6653E-5  -.9913   
 0.9810     0.3050E-5  -.9935     0.6793E-5  -.9913   
  1.001     0.3113E-5  -.9935     0.6934E-5  -.9913   
  1.021     0.3176E-5  -.9935     0.7075E-5  -.9913   
  1.041     0.3239E-5  -.9935     0.7216E-5  -.9913   
  1.061     0.3302E-5  -.9935     0.7358E-5  -.9913   
  1.081     0.3365E-5  -.9935     0.7499E-5  -.9913   
  1.101     0.3428E-5  -.9935     0.7641E-5  -.9913   
  1.121     0.3491E-5  -.9935     0.7782E-5  -.9913   
  1.141     0.3554E-5  -.9935     0.7924E-5  -.9913   
  1.161     0.3617E-5  -.9935     0.8066E-5  -.9913   
  1.181     0.3681E-5  -.9935     0.8208E-5  -.9913   
  1.201     0.3744E-5  -.9935     0.8351E-5  -.9913   
  1.221     0.3807E-5  -.9935     0.8493E-5  -.9913   
  1.241     0.3871E-5  -.9935     0.8636E-5  -.9913   
  1.261     0.3934E-5  -.9935     0.8779E-5  -.9913   
  1.281     0.3998E-5  -.9935     0.8922E-5  -.9913   
  1.301     0.4061E-5  -.9935     0.9065E-5  -.9913   
  1.321     0.4125E-5  -.9935     0.9208E-5  -.9913   
  1.341     0.4189E-5  -.9935     0.9352E-5  -.9913   
  1.361     0.4252E-5  -.9935     0.9496E-5  -.9913   
  1.381     0.4316E-5  -.9935     0.9640E-5  -.9913   
  1.401     0.4380E-5  -.9935     0.9784E-5  -.9913   
  1.421     0.4444E-5  -.9935     0.9928E-5  -.9913   
  1.441     0.4508E-5  -.9935     0.1007E-4  -.9913   
  1.461     0.4572E-5  -.9935     0.1022E-4  -.9913   
  1.481     0.4636E-5  -.9935     0.1036E-4  -.9913   
  1.502     0.4700E-5  -.9935     0.1051E-4  -.9913   
  1.522     0.4764E-5  -.9935     0.1065E-4  -.9913   
  1.542     0.4828E-5  -.9935     0.1080E-4  -.9913   
  1.562     0.4892E-5  -.9935     0.1094E-4  -.9913   
  1.582     0.4957E-5  -.9935     0.1109E-4  -.9913   
  1.602     0.5021E-5  -.9935     0.1124E-4  -.9913   
  1.622     0.5086E-5  -.9935     0.1138E-4  -.9913   
  1.642     0.5150E-5  -.9935     0.1153E-4  -.9913   
  1.662     0.5215E-5  -.9935     0.1168E-4  -.9913   
  1.682     0.5280E-5  -.9935     0.1182E-4  -.9913   
  1.702     0.5344E-5  -.9935     0.1197E-4  -.9913   
  1.722     0.5409E-5  -.9935     0.1212E-4  -.9913   
  1.742     0.5474E-5  -.9935     0.1227E-4  -.9913   
  1.762     0.5539E-5  -.9935     0.1241E-4  -.9913   
  1.782     0.5604E-5  -.9935     0.1256E-4  -.9913   
  1.802     0.5669E-5  -.9935     0.1271E-4  -.9913   
  1.822     0.5734E-5  -.9935     0.1286E-4  -.9913   
  1.842     0.5799E-5  -.9935     0.1301E-4  -.9912   
  1.862     0.5865E-5  -.9935     0.1316E-4  -.9912   
  1.882     0.5930E-5  -.9935     0.1331E-4  -.9912   
  1.902     0.5996E-5  -.9935     0.1346E-4  -.9912   
  1.922     0.6061E-5  -.9935     0.1361E-4  -.9912   
  1.942     0.6127E-5  -.9935     0.1376E-4  -.9912   
  1.962     0.6192E-5  -.9935     0.1391E-4  -.9912   
  1.982     0.6258E-5  -.9935     0.1406E-4  -.9912   
  2.002     0.6324E-5  -.9935     0.1421E-4  -.9912   
  2.022     0.6390E-5  -.9935     0.1436E-4  -.9912   
  2.042     0.6456E-5  -.9935     0.1451E-4  -.9912   
  2.062     0.6522E-5  -.9935     0.1467E-4  -.9912   
  2.082     0.6588E-5  -.9935     0.1482E-4  -.9912   
  2.102     0.6655E-5  -.9935     0.1497E-4  -.9912   
  2.122     0.6721E-5  -.9934     0.1512E-4  -.9912   
  2.142     0.6787E-5  -.9934     0.1528E-4  -.9912   
  2.162     0.6854E-5  -.9934     0.1543E-4  -.9912   
  2.182     0.6921E-5  -.9934     0.1558E-4  -.9912   
  2.202     0.6987E-5  -.9934     0.1574E-4  -.9912   
  2.222     0.7054E-5  -.9934     0.1589E-4  -.9912   
  2.242     0.7121E-5  -.9934     0.1605E-4  -.9912   
  2.262     0.7188E-5  -.9934     0.1620E-4  -.9912   
  2.282     0.7255E-5  -.9934     0.1636E-4  -.9912   
  2.302     0.7322E-5  -.9934     0.1652E-4  -.9912   
  2.322     0.7389E-5  -.9934     0.1667E-4  -.9912   
  2.342     0.7457E-5  -.9934     0.1683E-4  -.9912   
  2.362     0.7524E-5  -.9934     0.1699E-4  -.9912   
  2.382     0.7592E-5  -.9934     0.1714E-4  -.9912   
  2.402     0.7660E-5  -.9934     0.1730E-4  -.9912   
  2.422     0.7727E-5  -.9934     0.1746E-4  -.9912   
  2.442     0.7795E-5  -.9934     0.1762E-4  -.9912   
  2.462     0.7863E-5  -.9934     0.1778E-4  -.9912   
  2.482     0.7931E-5  -.9934     0.1793E-4  -.9912   
  2.503     0.7999E-5  -.9934     0.1809E-4  -.9911   
  2.523     0.8068E-5  -.9934     0.1825E-4  -.9911   
  2.543     0.8136E-5  -.9934     0.1841E-4  -.9911   
  2.563     0.8205E-5  -.9934     0.1857E-4  -.9911   
  2.583     0.8273E-5  -.9934     0.1874E-4  -.9911   
  2.603     0.8342E-5  -.9934     0.1890E-4  -.9911   
  2.623     0.8411E-5  -.9934     0.1906E-4  -.9911   
  2.643     0.8480E-5  -.9934     0.1922E-4  -.9911   
  2.663     0.8549E-5  -.9934     0.1938E-4  -.9911   
  2.683     0.8618E-5  -.9934     0.1955E-4  -.9911   
  2.703     0.8687E-5  -.9934     0.1971E-4  -.9911   
  2.723     0.8756E-5  -.9934     0.1987E-4  -.9911   
  2.743     0.8826E-5  -.9934     0.2004E-4  -.9911   
  2.763     0.8896E-5  -.9934     0.2020E-4  -.9911   
  2.783     0.8965E-5  -.9934     0.2037E-4  -.9911   
  2.803     0.9035E-5  -.9934     0.2053E-4  -.9911   
  2.823     0.9105E-5  -.9934     0.2070E-4  -.9911   
  2.843     0.9175E-5  -.9934     0.2087E-4  -.9911   
  2.863     0.9245E-5  -.9934     0.2103E-4  -.9911   
  2.883     0.9316E-5  -.9934     0.2120E-4  -.9911   
  2.903     0.9386E-5  -.9934     0.2137E-4  -.9911   
  2.923     0.9457E-5  -.9934     0.2154E-4  -.9911   
  2.943     0.9528E-5  -.9934     0.2170E-4  -.9911   
  2.963     0.9598E-5  -.9934     0.2187E-4  -.9911   
  2.983     0.9669E-5  -.9934     0.2204E-4  -.9911   
  3.003     0.9740E-5  -.9934     0.2221E-4  -.9910   
  3.023     0.9812E-5  -.9934     0.2238E-4  -.9910   
  3.043     0.9883E-5  -.9934     0.2256E-4  -.9910   
  3.063     0.9955E-5  -.9934     0.2273E-4  -.9910   
  3.083     0.1003E-4  -.9934     0.2290E-4  -.9910   
  3.103     0.1010E-4  -.9934     0.2307E-4  -.9910   
  3.123     0.1017E-4  -.9934     0.2324E-4  -.9910   
  3.143     0.1024E-4  -.9934     0.2342E-4  -.9910   
  3.163     0.1031E-4  -.9934     0.2359E-4  -.9910   
  3.183     0.1039E-4  -.9934     0.2377E-4  -.9910   
  3.203     0.1046E-4  -.9934     0.2394E-4  -.9910   
  3.223     0.1053E-4  -.9934     0.2412E-4  -.9910   
  3.243     0.1060E-4  -.9934     0.2429E-4  -.9910   
  3.263     0.1068E-4  -.9934     0.2447E-4  -.9910   
  3.283     0.1075E-4  -.9933     0.2465E-4  -.9910   
  3.303     0.1082E-4  -.9933     0.2482E-4  -.9910   
  3.323     0.1090E-4  -.9933     0.2500E-4  -.9910   
  3.343     0.1097E-4  -.9933     0.2518E-4  -.9910   
  3.363     0.1104E-4  -.9933     0.2536E-4  -.9910   
  3.383     0.1112E-4  -.9933     0.2554E-4  -.9910   
  3.403     0.1119E-4  -.9933     0.2572E-4  -.9909   
  3.423     0.1127E-4  -.9933     0.2590E-4  -.9909   
  3.443     0.1134E-4  -.9933     0.2608E-4  -.9909   
  3.463     0.1141E-4  -.9933     0.2627E-4  -.9909   
  3.483     0.1149E-4  -.9933     0.2645E-4  -.9909   
  3.504     0.1156E-4  -.9933     0.2663E-4  -.9909   
  3.524     0.1164E-4  -.9933     0.2682E-4  -.9909   
  3.544     0.1171E-4  -.9933     0.2700E-4  -.9909   
  3.564     0.1179E-4  -.9933     0.2719E-4  -.9909   
  3.584     0.1186E-4  -.9933     0.2737E-4  -.9909   
  3.604     0.1194E-4  -.9933     0.2756E-4  -.9909   
  3.624     0.1202E-4  -.9933     0.2775E-4  -.9909   
  3.644     0.1209E-4  -.9933     0.2793E-4  -.9909   
  3.664     0.1217E-4  -.9933     0.2812E-4  -.9909   
  3.684     0.1224E-4  -.9933     0.2831E-4  -.9909   
  3.704     0.1232E-4  -.9933     0.2850E-4  -.9909   
  3.724     0.1240E-4  -.9933     0.2869E-4  -.9909   
  3.744     0.1247E-4  -.9933     0.2888E-4  -.9909   
  3.764     0.1255E-4  -.9933     0.2907E-4  -.9909   
  3.784     0.1263E-4  -.9933     0.2927E-4  -.9908   
  3.804     0.1270E-4  -.9933     0.2946E-4  -.9908   
  3.824     0.1278E-4  -.9933     0.2965E-4  -.9908   
  3.844     0.1286E-4  -.9933     0.2985E-4  -.9908   
  3.864     0.1294E-4  -.9933     0.3004E-4  -.9908   
  3.884     0.1302E-4  -.9933     0.3024E-4  -.9908   
  3.904     0.1309E-4  -.9933     0.3043E-4  -.9908   
  3.924     0.1317E-4  -.9933     0.3063E-4  -.9908   
  3.944     0.1325E-4  -.9933     0.3083E-4  -.9908   
  3.964     0.1333E-4  -.9933     0.3103E-4  -.9908   
  3.984     0.1341E-4  -.9933     0.3123E-4  -.9908   
  4.004     0.1349E-4  -.9933     0.3143E-4  -.9908   
  4.024     0.1357E-4  -.9933     0.3163E-4  -.9908   
  4.044     0.1365E-4  -.9933     0.3183E-4  -.9908   
  4.064     0.1373E-4  -.9933     0.3203E-4  -.9908   
  4.084     0.1381E-4  -.9933     0.3223E-4  -.9908   
  4.104     0.1389E-4  -.9932     0.3244E-4  -.9907   
  4.124     0.1397E-4  -.9932     0.3264E-4  -.9907   
  4.144     0.1405E-4  -.9932     0.3285E-4  -.9907   
  4.164     0.1413E-4  -.9932     0.3305E-4  -.9907   
  4.184     0.1421E-4  -.9932     0.3326E-4  -.9907   
  4.204     0.1429E-4  -.9932     0.3347E-4  -.9907   
  4.224     0.1437E-4  -.9932     0.3368E-4  -.9907   
  4.244     0.1445E-4  -.9932     0.3389E-4  -.9907   
  4.264     0.1453E-4  -.9932     0.3410E-4  -.9907   
  4.284     0.1462E-4  -.9932     0.3431E-4  -.9907   
  4.304     0.1470E-4  -.9932     0.3452E-4  -.9907   
  4.324     0.1478E-4  -.9932     0.3473E-4  -.9907   
  4.344     0.1486E-4  -.9932     0.3494E-4  -.9907   
  4.364     0.1495E-4  -.9932     0.3516E-4  -.9907   
  4.384     0.1503E-4  -.9932     0.3537E-4  -.9907   
  4.404     0.1511E-4  -.9932     0.3559E-4  -.9906   
  4.424     0.1520E-4  -.9932     0.3581E-4  -.9906   
  4.444     0.1528E-4  -.9932     0.3602E-4  -.9906   
  4.464     0.1536E-4  -.9932     0.3624E-4  -.9906   
  4.484     0.1545E-4  -.9932     0.3646E-4  -.9906   
  4.505     0.1553E-4  -.9932     0.3668E-4  -.9906   
  4.525     0.1562E-4  -.9932     0.3690E-4  -.9906   
  4.545     0.1570E-4  -.9932     0.3713E-4  -.9906   
  4.565     0.1579E-4  -.9932     0.3735E-4  -.9906   
  4.585     0.1587E-4  -.9932     0.3757E-4  -.9906   
  4.605     0.1596E-4  -.9932     0.3780E-4  -.9906   
  4.625     0.1604E-4  -.9932     0.3802E-4  -.9906   
  4.645     0.1613E-4  -.9932     0.3825E-4  -.9906   
  4.665     0.1622E-4  -.9932     0.3848E-4  -.9905   
  4.685     0.1630E-4  -.9932     0.3871E-4  -.9905   
  4.705     0.1639E-4  -.9932     0.3894E-4  -.9905   
  4.725     0.1648E-4  -.9932     0.3917E-4  -.9905   
  4.745     0.1656E-4  -.9931     0.3940E-4  -.9905   
  4.765     0.1665E-4  -.9931     0.3963E-4  -.9905   
  4.785     0.1674E-4  -.9931     0.3987E-4  -.9905   
  4.805     0.1683E-4  -.9931     0.4010E-4  -.9905   
  4.825     0.1691E-4  -.9931     0.4034E-4  -.9905   
  4.845     0.1700E-4  -.9931     0.4057E-4  -.9905   
  4.865     0.1709E-4  -.9931     0.4081E-4  -.9905   
  4.885     0.1718E-4  -.9931     0.4105E-4  -.9905   
  4.905     0.1727E-4  -.9931     0.4129E-4  -.9905   
  4.925     0.1736E-4  -.9931     0.4153E-4  -.9904   
  4.945     0.1745E-4  -.9931     0.4177E-4  -.9904   
  4.965     0.1754E-4  -.9931     0.4202E-4  -.9904   
  4.985     0.1763E-4  -.9931     0.4226E-4  -.9904   
  5.005     0.1772E-4  -.9931     0.4251E-4  -.9904   
  5.025     0.1781E-4  -.9931     0.4275E-4  -.9904   
  5.045     0.1790E-4  -.9931     0.4300E-4  -.9904   
  5.065     0.1799E-4  -.9931     0.4325E-4  -.9904   
  5.085     0.1809E-4  -.9931     0.4350E-4  -.9904   
  5.105     0.1818E-4  -.9931     0.4375E-4  -.9904   
  5.125     0.1827E-4  -.9931     0.4400E-4  -.9904   
  5.145     0.1836E-4  -.9931     0.4426E-4  -.9903   
  5.165     0.1846E-4  -.9931     0.4451E-4  -.9903   
  5.185     0.1855E-4  -.9931     0.4477E-4  -.9903   
  5.205     0.1864E-4  -.9931     0.4503E-4  -.9903   
  5.225     0.1874E-4  -.9931     0.4528E-4  -.9903   
  5.245     0.1883E-4  -.9931     0.4554E-4  -.9903   
  5.265     0.1893E-4  -.9931     0.4580E-4  -.9903   
  5.285     0.1902E-4  -.9931     0.4607E-4  -.9903   
  5.305     0.1911E-4  -.9930     0.4633E-4  -.9903   
  5.325     0.1921E-4  -.9930     0.4659E-4  -.9903   
  5.345     0.1931E-4  -.9930     0.4686E-4  -.9903   
  5.365     0.1940E-4  -.9930     0.4713E-4  -.9902   
  5.385     0.1950E-4  -.9930     0.4740E-4  -.9902   
  5.405     0.1959E-4  -.9930     0.4767E-4  -.9902   
  5.425     0.1969E-4  -.9930     0.4794E-4  -.9902   
  5.445     0.1979E-4  -.9930     0.4821E-4  -.9902   
  5.465     0.1989E-4  -.9930     0.4848E-4  -.9902   
  5.485     0.1998E-4  -.9930     0.4876E-4  -.9902   
  5.506     0.2008E-4  -.9930     0.4903E-4  -.9902   
  5.526     0.2018E-4  -.9930     0.4931E-4  -.9902   
  5.546     0.2028E-4  -.9930     0.4959E-4  -.9902   
  5.566     0.2038E-4  -.9930     0.4987E-4  -.9902   
  5.586     0.2048E-4  -.9930     0.5015E-4  -.9901   
  5.606     0.2058E-4  -.9930     0.5044E-4  -.9901   
  5.626     0.2068E-4  -.9930     0.5072E-4  -.9901   
  5.646     0.2078E-4  -.9930     0.5101E-4  -.9901   
  5.666     0.2088E-4  -.9930     0.5130E-4  -.9901   
  5.686     0.2098E-4  -.9930     0.5159E-4  -.9901   
  5.706     0.2108E-4  -.9930     0.5188E-4  -.9901   
  5.726     0.2118E-4  -.9930     0.5217E-4  -.9901   
  5.746     0.2129E-4  -.9930     0.5246E-4  -.9901   
  5.766     0.2139E-4  -.9930     0.5276E-4  -.9900   
  5.786     0.2149E-4  -.9930     0.5306E-4  -.9900   
  5.806     0.2159E-4  -.9929     0.5335E-4  -.9900   
  5.826     0.2170E-4  -.9929     0.5365E-4  -.9900   
  5.846     0.2180E-4  -.9929     0.5396E-4  -.9900   
  5.866     0.2191E-4  -.9929     0.5426E-4  -.9900   
  5.886     0.2201E-4  -.9929     0.5456E-4  -.9900   
  5.906     0.2212E-4  -.9929     0.5487E-4  -.9900   
  5.926     0.2222E-4  -.9929     0.5518E-4  -.9900   
  5.946     0.2233E-4  -.9929     0.5549E-4  -.9900   
  5.966     0.2243E-4  -.9929     0.5580E-4  -.9899   
  5.986     0.2254E-4  -.9929     0.5611E-4  -.9899   
  6.006     0.2265E-4  -.9929     0.5643E-4  -.9899   
  6.026     0.2276E-4  -.9929     0.5674E-4  -.9899   
  6.046     0.2286E-4  -.9929     0.5706E-4  -.9899   
  6.066     0.2297E-4  -.9929     0.5738E-4  -.9899   
  6.086     0.2308E-4  -.9929     0.5770E-4  -.9899   
  6.106     0.2319E-4  -.9929     0.5803E-4  -.9899   
  6.126     0.2330E-4  -.9929     0.5835E-4  -.9898   
  6.146     0.2341E-4  -.9929     0.5868E-4  -.9898   
  6.166     0.2352E-4  -.9929     0.5901E-4  -.9898   
  6.186     0.2363E-4  -.9929     0.5934E-4  -.9898   
  6.206     0.2374E-4  -.9929     0.5967E-4  -.9898   
  6.226     0.2385E-4  -.9929     0.6001E-4  -.9898   
  6.246     0.2396E-4  -.9928     0.6034E-4  -.9898   
  6.266     0.2408E-4  -.9928     0.6068E-4  -.9898   
  6.286     0.2419E-4  -.9928     0.6102E-4  -.9898   
  6.306     0.2430E-4  -.9928     0.6136E-4  -.9897   
  6.326     0.2442E-4  -.9928     0.6171E-4  -.9897   
  6.346     0.2453E-4  -.9928     0.6205E-4  -.9897   
  6.366     0.2464E-4  -.9928     0.6240E-4  -.9897   
  6.386     0.2476E-4  -.9928     0.6275E-4  -.9897   
  6.406     0.2487E-4  -.9928     0.6310E-4  -.9897   
  6.426     0.2499E-4  -.9928     0.6346E-4  -.9897   
  6.446     0.2511E-4  -.9928     0.6381E-4  -.9897   
  6.466     0.2522E-4  -.9928     0.6417E-4  -.9896   
  6.486     0.2534E-4  -.9928     0.6453E-4  -.9896   
  6.507     0.2546E-4  -.9928     0.6489E-4  -.9896   
  6.527     0.2558E-4  -.9928     0.6526E-4  -.9896   
  6.547     0.2569E-4  -.9928     0.6562E-4  -.9896   
  6.567     0.2581E-4  -.9928     0.6599E-4  -.9896   
  6.587     0.2593E-4  -.9928     0.6636E-4  -.9896   
  6.607     0.2605E-4  -.9928     0.6674E-4  -.9895   
  6.627     0.2617E-4  -.9928     0.6711E-4  -.9895   
  6.647     0.2629E-4  -.9927     0.6749E-4  -.9895   
  6.667     0.2642E-4  -.9927     0.6787E-4  -.9895   
  6.687     0.2654E-4  -.9927     0.6825E-4  -.9895   
  6.707     0.2666E-4  -.9927     0.6864E-4  -.9895   
  6.727     0.2678E-4  -.9927     0.6902E-4  -.9895   
  6.747     0.2691E-4  -.9927     0.6941E-4  -.9895   
  6.767     0.2703E-4  -.9927     0.6980E-4  -.9894   
  6.787     0.2716E-4  -.9927     0.7020E-4  -.9894   
  6.807     0.2728E-4  -.9927     0.7059E-4  -.9894   
  6.827     0.2741E-4  -.9927     0.7099E-4  -.9894   
  6.847     0.2753E-4  -.9927     0.7139E-4  -.9894   
  6.867     0.2766E-4  -.9927     0.7180E-4  -.9894   
  6.887     0.2779E-4  -.9927     0.7221E-4  -.9894   
  6.907     0.2791E-4  -.9927     0.7261E-4  -.9893   
  6.927     0.2804E-4  -.9927     0.7303E-4  -.9893   
  6.947     0.2817E-4  -.9927     0.7344E-4  -.9893   
  6.967     0.2830E-4  -.9927     0.7386E-4  -.9893   
  6.987     0.2843E-4  -.9927     0.7428E-4  -.9893   
  7.007     0.2856E-4  -.9926     0.7470E-4  -.9893   
  7.027     0.2869E-4  -.9926     0.7512E-4  -.9893   
  7.047     0.2882E-4  -.9926     0.7555E-4  -.9892   
  7.067     0.2895E-4  -.9926     0.7598E-4  -.9892   
  7.087     0.2909E-4  -.9926     0.7641E-4  -.9892   
  7.107     0.2922E-4  -.9926     0.7685E-4  -.9892   
  7.127     0.2935E-4  -.9926     0.7729E-4  -.9892   
  7.147     0.2949E-4  -.9926     0.7773E-4  -.9892   
  7.167     0.2962E-4  -.9926     0.7817E-4  -.9891   
  7.187     0.2976E-4  -.9926     0.7862E-4  -.9891   
  7.207     0.2989E-4  -.9926     0.7907E-4  -.9891   
  7.227     0.3003E-4  -.9926     0.7952E-4  -.9891   
  7.247     0.3017E-4  -.9926     0.7998E-4  -.9891   
  7.267     0.3030E-4  -.9926     0.8044E-4  -.9891   
  7.287     0.3044E-4  -.9926     0.8090E-4  -.9890   
  7.307     0.3058E-4  -.9926     0.8137E-4  -.9890   
  7.327     0.3072E-4  -.9926     0.8183E-4  -.9890   
  7.347     0.3086E-4  -.9925     0.8231E-4  -.9890   
  7.367     0.3100E-4  -.9925     0.8278E-4  -.9890   
  7.387     0.3114E-4  -.9925     0.8326E-4  -.9890   
  7.407     0.3129E-4  -.9925     0.8374E-4  -.9890   
  7.427     0.3143E-4  -.9925     0.8422E-4  -.9889   
  7.447     0.3157E-4  -.9925     0.8471E-4  -.9889   
  7.467     0.3172E-4  -.9925     0.8520E-4  -.9889   
  7.487     0.3186E-4  -.9925     0.8570E-4  -.9889   
  7.508     0.3201E-4  -.9925     0.8619E-4  -.9889   
  7.528     0.3215E-4  -.9925     0.8670E-4  -.9888   
  7.548     0.3230E-4  -.9925     0.8720E-4  -.9888   
  7.568     0.3245E-4  -.9925     0.8771E-4  -.9888   
  7.588     0.3260E-4  -.9925     0.8822E-4  -.9888   
  7.608     0.3274E-4  -.9925     0.8873E-4  -.9888   
  7.628     0.3289E-4  -.9925     0.8925E-4  -.9888   
  7.648     0.3304E-4  -.9925     0.8978E-4  -.9887   
  7.668     0.3320E-4  -.9924     0.9030E-4  -.9887   
  7.688     0.3335E-4  -.9924     0.9083E-4  -.9887   
  7.708     0.3350E-4  -.9924     0.9137E-4  -.9887   
  7.728     0.3365E-4  -.9924     0.9190E-4  -.9887   
  7.748     0.3381E-4  -.9924     0.9244E-4  -.9887   
  7.768     0.3396E-4  -.9924     0.9299E-4  -.9886   
  7.788     0.3412E-4  -.9924     0.9354E-4  -.9886   
  7.808     0.3427E-4  -.9924     0.9409E-4  -.9886   
  7.828     0.3443E-4  -.9924     0.9465E-4  -.9886   
  7.848     0.3459E-4  -.9924     0.9521E-4  -.9886   
  7.868     0.3474E-4  -.9924     0.9577E-4  -.9885   
  7.888     0.3490E-4  -.9924     0.9634E-4  -.9885   
  7.908     0.3506E-4  -.9924     0.9692E-4  -.9885   
  7.928     0.3522E-4  -.9924     0.9749E-4  -.9885   
  7.948     0.3539E-4  -.9923     0.9807E-4  -.9885   
  7.968     0.3555E-4  -.9923     0.9866E-4  -.9884   
  7.988     0.3571E-4  -.9923     0.9925E-4  -.9884   
  8.008     0.3587E-4  -.9923     0.9985E-4  -.9884   
  8.028     0.3604E-4  -.9923     0.1004E-3  -.9884   
  8.048     0.3620E-4  -.9923     0.1010E-3  -.9884   
  8.068     0.3637E-4  -.9923     0.1017E-3  -.9883   
  8.088     0.3654E-4  -.9923     0.1023E-3  -.9883   
  8.108     0.3671E-4  -.9923     0.1029E-3  -.9883   
  8.128     0.3687E-4  -.9923     0.1035E-3  -.9883   
  8.148     0.3704E-4  -.9923     0.1041E-3  -.9883   
  8.168     0.3721E-4  -.9923     0.1048E-3  -.9882   
  8.188     0.3739E-4  -.9923     0.1054E-3  -.9882   
  8.208     0.3756E-4  -.9923     0.1060E-3  -.9882   
  8.228     0.3773E-4  -.9922     0.1067E-3  -.9882   
  8.248     0.3790E-4  -.9922     0.1073E-3  -.9882   
  8.268     0.3808E-4  -.9922     0.1080E-3  -.9881   
  8.288     0.3825E-4  -.9922     0.1087E-3  -.9881   
  8.308     0.3843E-4  -.9922     0.1093E-3  -.9881   
  8.328     0.3861E-4  -.9922     0.1100E-3  -.9881   
  8.348     0.3879E-4  -.9922     0.1107E-3  -.9880   
  8.368     0.3897E-4  -.9922     0.1114E-3  -.9880   
  8.388     0.3915E-4  -.9922     0.1120E-3  -.9880   
  8.408     0.3933E-4  -.9922     0.1127E-3  -.9880   
  8.428     0.3951E-4  -.9922     0.1134E-3  -.9880   
  8.448     0.3969E-4  -.9922     0.1141E-3  -.9879   
  8.468     0.3988E-4  -.9922     0.1148E-3  -.9879   
  8.488     0.4006E-4  -.9921     0.1156E-3  -.9879   
  8.509     0.4025E-4  -.9921     0.1163E-3  -.9879   
  8.529     0.4044E-4  -.9921     0.1170E-3  -.9878   
  8.549     0.4062E-4  -.9921     0.1177E-3  -.9878   
  8.569     0.4081E-4  -.9921     0.1185E-3  -.9878   
  8.589     0.4100E-4  -.9921     0.1192E-3  -.9878   
  8.609     0.4119E-4  -.9921     0.1200E-3  -.9877   
  8.629     0.4139E-4  -.9921     0.1207E-3  -.9877   
  8.649     0.4158E-4  -.9921     0.1215E-3  -.9877   
  8.669     0.4177E-4  -.9921     0.1223E-3  -.9877   
  8.689     0.4197E-4  -.9921     0.1230E-3  -.9876   
  8.709     0.4216E-4  -.9921     0.1238E-3  -.9876   
  8.729     0.4236E-4  -.9920     0.1246E-3  -.9876   
  8.749     0.4256E-4  -.9920     0.1254E-3  -.9876   
  8.769     0.4276E-4  -.9920     0.1262E-3  -.9875   
  8.789     0.4296E-4  -.9920     0.1270E-3  -.9875   
  8.809     0.4316E-4  -.9920     0.1278E-3  -.9875   
  8.829     0.4336E-4  -.9920     0.1287E-3  -.9875   
  8.849     0.4357E-4  -.9920     0.1295E-3  -.9874   
  8.869     0.4377E-4  -.9920     0.1303E-3  -.9874   
  8.889     0.4398E-4  -.9920     0.1312E-3  -.9874   
  8.909     0.4419E-4  -.9920     0.1320E-3  -.9874   
  8.929     0.4440E-4  -.9920     0.1329E-3  -.9873   
  8.949     0.4461E-4  -.9920     0.1337E-3  -.9873   
  8.969     0.4482E-4  -.9919     0.1346E-3  -.9873   
  8.989     0.4503E-4  -.9919     0.1355E-3  -.9873   
  9.009     0.4524E-4  -.9919     0.1364E-3  -.9872   
  9.029     0.4546E-4  -.9919     0.1373E-3  -.9872   
  9.049     0.4567E-4  -.9919     0.1382E-3  -.9872   
  9.069     0.4589E-4  -.9919     0.1391E-3  -.9871   
  9.089     0.4611E-4  -.9919     0.1400E-3  -.9871   
  9.109     0.4633E-4  -.9919     0.1409E-3  -.9871   
  9.129     0.4655E-4  -.9919     0.1419E-3  -.9871   
  9.149     0.4677E-4  -.9919     0.1428E-3  -.9870   
  9.169     0.4699E-4  -.9918     0.1438E-3  -.9870   
  9.189     0.4722E-4  -.9918     0.1447E-3  -.9870   
  9.209     0.4744E-4  -.9918     0.1457E-3  -.9869   
  9.229     0.4767E-4  -.9918     0.1467E-3  -.9869   
  9.249     0.4790E-4  -.9918     0.1477E-3  -.9869   
  9.269     0.4813E-4  -.9918     0.1487E-3  -.9869   
  9.289     0.4836E-4  -.9918     0.1497E-3  -.9868   
  9.309     0.4859E-4  -.9918     0.1507E-3  -.9868   
  9.329     0.4883E-4  -.9918     0.1517E-3  -.9868   
  9.349     0.4906E-4  -.9918     0.1527E-3  -.9867   
  9.369     0.4930E-4  -.9918     0.1538E-3  -.9867   
  9.389     0.4954E-4  -.9917     0.1548E-3  -.9867   
  9.409     0.4978E-4  -.9917     0.1559E-3  -.9866   
  9.429     0.5002E-4  -.9917     0.1570E-3  -.9866   
  9.449     0.5026E-4  -.9917     0.1581E-3  -.9866   
  9.469     0.5051E-4  -.9917     0.1592E-3  -.9866   
  9.489     0.5075E-4  -.9917     0.1603E-3  -.9865   
  9.510     0.5100E-4  -.9917     0.1614E-3  -.9865   
  9.530     0.5125E-4  -.9917     0.1625E-3  -.9865   
  9.550     0.5150E-4  -.9917     0.1636E-3  -.9864   
  9.570     0.5175E-4  -.9917     0.1648E-3  -.9864   
  9.590     0.5200E-4  -.9916     0.1659E-3  -.9864   
  9.610     0.5226E-4  -.9916     0.1671E-3  -.9863   
  9.630     0.5251E-4  -.9916     0.1683E-3  -.9863   
  9.650     0.5277E-4  -.9916     0.1695E-3  -.9863   
  9.670     0.5303E-4  -.9916     0.1707E-3  -.9862   
  9.690     0.5329E-4  -.9916     0.1719E-3  -.9862   
  9.710     0.5356E-4  -.9916     0.1731E-3  -.9862   
  9.730     0.5382E-4  -.9916     0.1744E-3  -.9861   
  9.750     0.5409E-4  -.9916     0.1756E-3  -.9861   
  9.770     0.5436E-4  -.9915     0.1769E-3  -.9860   
  9.790     0.5463E-4  -.9915     0.1782E-3  -.9860   
  9.810     0.5490E-4  -.9915     0.1794E-3  -.9860   
  9.830     0.5517E-4  -.9915     0.1807E-3  -.9859   
  9.850     0.5545E-4  -.9915     0.1821E-3  -.9859   
  9.870     0.5572E-4  -.9915     0.1834E-3  -.9859   
  9.890     0.5600E-4  -.9915     0.1847E-3  -.9858   
  9.910     0.5628E-4  -.9915     0.1861E-3  -.9858   
  9.930     0.5656E-4  -.9915     0.1875E-3  -.9858   
  9.950     0.5685E-4  -.9914     0.1888E-3  -.9857   
  9.970     0.5713E-4  -.9914     0.1902E-3  -.9857   
  9.990     0.5742E-4  -.9914     0.1916E-3  -.9856   
  10.01     0.5771E-4  -.9914     0.1931E-3  -.9856   
  10.03     0.5800E-4  -.9914     0.1945E-3  -.9856   
  10.05     0.5830E-4  -.9914     0.1960E-3  -.9855   
  10.07     0.5859E-4  -.9914     0.1974E-3  -.9855   
  10.09     0.5889E-4  -.9914     0.1989E-3  -.9854   
  10.11     0.5919E-4  -.9914     0.2004E-3  -.9854   
  10.13     0.5949E-4  -.9913     0.2020E-3  -.9854   
  10.15     0.5979E-4  -.9913     0.2035E-3  -.9853   
  10.17     0.6010E-4  -.9913     0.2050E-3  -.9853   
  10.19     0.6041E-4  -.9913     0.2066E-3  -.9852   
  10.21     0.6072E-4  -.9913     0.2082E-3  -.9852   
  10.23     0.6103E-4  -.9913     0.2098E-3  -.9852   
  10.25     0.6134E-4  -.9913     0.2114E-3  -.9851   
  10.27     0.6166E-4  -.9913     0.2131E-3  -.9851   
  10.29     0.6198E-4  -.9912     0.2147E-3  -.9850   
  10.31     0.6230E-4  -.9912     0.2164E-3  -.9850   
  10.33     0.6262E-4  -.9912     0.2181E-3  -.9849   
  10.35     0.6294E-4  -.9912     0.2198E-3  -.9849   
  10.37     0.6327E-4  -.9912     0.2215E-3  -.9849   
  10.39     0.6360E-4  -.9912     0.2233E-3  -.9848   
  10.41     0.6393E-4  -.9912     0.2250E-3  -.9848   
  10.43     0.6427E-4  -.9912     0.2268E-3  -.9847   
  10.45     0.6460E-4  -.9911     0.2286E-3  -.9847   
  10.47     0.6494E-4  -.9911     0.2305E-3  -.9846   
  10.49     0.6528E-4  -.9911     0.2323E-3  -.9846   
  10.51     0.6563E-4  -.9911     0.2342E-3  -.9845   
  10.53     0.6597E-4  -.9911     0.2361E-3  -.9845   
  10.55     0.6632E-4  -.9911     0.2380E-3  -.9844   
  10.57     0.6667E-4  -.9911     0.2399E-3  -.9844   
  10.59     0.6703E-4  -.9911     0.2419E-3  -.9844   
  10.61     0.6738E-4  -.9910     0.2439E-3  -.9843   
  10.63     0.6774E-4  -.9910     0.2459E-3  -.9843   
  10.65     0.6810E-4  -.9910     0.2479E-3  -.9842   
  10.67     0.6847E-4  -.9910     0.2500E-3  -.9842   
  10.69     0.6884E-4  -.9910     0.2520E-3  -.9841   
  10.71     0.6921E-4  -.9910     0.2541E-3  -.9841   
  10.73     0.6958E-4  -.9910     0.2563E-3  -.9840   
  10.75     0.6995E-4  -.9909     0.2584E-3  -.9840   
  10.77     0.7033E-4  -.9909     0.2606E-3  -.9839   
  10.79     0.7071E-4  -.9909     0.2628E-3  -.9838   
  10.81     0.7110E-4  -.9909     0.2650E-3  -.9838   
  10.83     0.7148E-4  -.9909     0.2673E-3  -.9837   
  10.85     0.7187E-4  -.9909     0.2696E-3  -.9837   
  10.87     0.7226E-4  -.9909     0.2719E-3  -.9836   
  10.89     0.7266E-4  -.9908     0.2742E-3  -.9836   
  10.91     0.7306E-4  -.9908     0.2766E-3  -.9835   
  10.93     0.7346E-4  -.9908     0.2790E-3  -.9835   
  10.95     0.7386E-4  -.9908     0.2815E-3  -.9834   
  10.97     0.7427E-4  -.9908     0.2839E-3  -.9834   
  10.99     0.7468E-4  -.9908     0.2864E-3  -.9833   
  11.01     0.7509E-4  -.9908     0.2889E-3  -.9832   
  11.03     0.7551E-4  -.9907     0.2915E-3  -.9832   
  11.05     0.7593E-4  -.9907     0.2941E-3  -.9831   
  11.07     0.7636E-4  -.9907     0.2967E-3  -.9831   
  11.09     0.7678E-4  -.9907     0.2994E-3  -.9830   
  11.11     0.7721E-4  -.9907     0.3021E-3  -.9829   
  11.13     0.7765E-4  -.9907     0.3048E-3  -.9829   
  11.15     0.7808E-4  -.9906     0.3076E-3  -.9828   
  11.17     0.7853E-4  -.9906     0.3104E-3  -.9828   
  11.19     0.7897E-4  -.9906     0.3132E-3  -.9827   
  11.21     0.7942E-4  -.9906     0.3161E-3  -.9826   
  11.23     0.7987E-4  -.9906     0.3190E-3  -.9826   
  11.25     0.8032E-4  -.9906     0.3219E-3  -.9825   
  11.27     0.8078E-4  -.9905     0.3249E-3  -.9824   
  11.29     0.8125E-4  -.9905     0.3280E-3  -.9824   
  11.31     0.8171E-4  -.9905     0.3310E-3  -.9823   
  11.33     0.8218E-4  -.9905     0.3342E-3  -.9822   
  11.35     0.8266E-4  -.9905     0.3373E-3  -.9822   
  11.37     0.8313E-4  -.9905     0.3405E-3  -.9821   
  11.39     0.8362E-4  -.9905     0.3438E-3  -.9820   
  11.41     0.8410E-4  -.9904     0.3471E-3  -.9820   
  11.43     0.8459E-4  -.9904     0.3504E-3  -.9819   
  11.45     0.8509E-4  -.9904     0.3538E-3  -.9818   
  11.47     0.8558E-4  -.9904     0.3572E-3  -.9818   
  11.49     0.8609E-4  -.9904     0.3607E-3  -.9817   
  11.51     0.8659E-4  -.9903     0.3642E-3  -.9816   
  11.53     0.8710E-4  -.9903     0.3678E-3  -.9815   
  11.55     0.8762E-4  -.9903     0.3715E-3  -.9815   
  11.57     0.8814E-4  -.9903     0.3752E-3  -.9814   
  11.59     0.8866E-4  -.9903     0.3789E-3  -.9813   
  11.61     0.8919E-4  -.9903     0.3827E-3  -.9812   
  11.63     0.8972E-4  -.9902     0.3865E-3  -.9812   
  11.65     0.9026E-4  -.9902     0.3905E-3  -.9811   
  11.67     0.9080E-4  -.9902     0.3944E-3  -.9810   
  11.69     0.9135E-4  -.9902     0.3984E-3  -.9809   
  11.71     0.9190E-4  -.9902     0.4025E-3  -.9809   
  11.73     0.9246E-4  -.9902     0.4067E-3  -.9808   
  11.75     0.9302E-4  -.9901     0.4109E-3  -.9807   
  11.77     0.9359E-4  -.9901     0.4152E-3  -.9806   
  11.79     0.9416E-4  -.9901     0.4195E-3  -.9805   
  11.81     0.9474E-4  -.9901     0.4239E-3  -.9804   
  11.83     0.9532E-4  -.9901     0.4284E-3  -.9804   
  11.85     0.9591E-4  -.9900     0.4329E-3  -.9803   
  11.87     0.9650E-4  -.9900     0.4376E-3  -.9802   
  11.89     0.9710E-4  -.9900     0.4422E-3  -.9801   
  11.91     0.9770E-4  -.9900     0.4470E-3  -.9800   
  11.93     0.9831E-4  -.9900     0.4519E-3  -.9799   
  11.95     0.9893E-4  -.9899     0.4568E-3  -.9798   
  11.97     0.9955E-4  -.9899     0.4618E-3  -.9797   
  11.99     0.1002E-3  -.9899     0.4668E-3  -.9796   
  12.01     0.1008E-3  -.9899     0.4720E-3  -.9795   
  12.03     0.1014E-3  -.9899     0.4772E-3  -.9795   
  12.05     0.1021E-3  -.9898     0.4826E-3  -.9794   
  12.07     0.1027E-3  -.9898     0.4880E-3  -.9793   
  12.09     0.1034E-3  -.9898     0.4935E-3  -.9792   
  12.11     0.1041E-3  -.9898     0.4991E-3  -.9791   
  12.13     0.1047E-3  -.9898     0.5048E-3  -.9790   
  12.15     0.1054E-3  -.9897     0.5106E-3  -.9789   
  12.17     0.1061E-3  -.9897     0.5165E-3  -.9788   
  12.19     0.1068E-3  -.9897     0.5225E-3  -.9787   
  12.21     0.1075E-3  -.9897     0.5286E-3  -.9785   
  12.23     0.1082E-3  -.9897     0.5348E-3  -.9784   
  12.25     0.1089E-3  -.9896     0.5411E-3  -.9783   
  12.27     0.1096E-3  -.9896     0.5475E-3  -.9782   
  12.29     0.1103E-3  -.9896     0.5540E-3  -.9781   
  12.31     0.1110E-3  -.9896     0.5607E-3  -.9780   
  12.33     0.1118E-3  -.9895     0.5674E-3  -.9779   
  12.35     0.1125E-3  -.9895     0.5743E-3  -.9778   
  12.37     0.1133E-3  -.9895     0.5813E-3  -.9777   
  12.39     0.1140E-3  -.9895     0.5885E-3  -.9775   
  12.41     0.1148E-3  -.9895     0.5958E-3  -.9774   
  12.43     0.1156E-3  -.9894     0.6032E-3  -.9773   
  12.45     0.1164E-3  -.9894     0.6107E-3  -.9772   
  12.47     0.1172E-3  -.9894     0.6184E-3  -.9771   
  12.49     0.1180E-3  -.9894     0.6262E-3  -.9769   
  12.51     0.1188E-3  -.9893     0.6342E-3  -.9768   
  12.53     0.1196E-3  -.9893     0.6423E-3  -.9767   
  12.55     0.1204E-3  -.9893     0.6506E-3  -.9766   
  12.57     0.1212E-3  -.9893     0.6590E-3  -.9764   
  12.59     0.1221E-3  -.9892     0.6676E-3  -.9763   
  12.61     0.1229E-3  -.9892     0.6764E-3  -.9762   
  12.63     0.1238E-3  -.9892     0.6853E-3  -.9760   
  12.65     0.1247E-3  -.9892     0.6945E-3  -.9759   
  12.67     0.1255E-3  -.9891     0.7038E-3  -.9757   
  12.69     0.1264E-3  -.9891     0.7133E-3  -.9756   
  12.71     0.1273E-3  -.9891     0.7229E-3  -.9755   
  12.73     0.1282E-3  -.9891     0.7328E-3  -.9753   
  12.75     0.1291E-3  -.9890     0.7429E-3  -.9752   
  12.77     0.1301E-3  -.9890     0.7532E-3  -.9750   
  12.79     0.1310E-3  -.9890     0.7637E-3  -.9749   
  12.81     0.1319E-3  -.9890     0.7744E-3  -.9747   
  12.83     0.1329E-3  -.9889     0.7853E-3  -.9746   
  12.85     0.1339E-3  -.9889     0.7965E-3  -.9744   
  12.87     0.1349E-3  -.9889     0.8079E-3  -.9742   
  12.89     0.1358E-3  -.9889     0.8196E-3  -.9741   
  12.91     0.1368E-3  -.9888     0.8315E-3  -.9739   
  12.93     0.1379E-3  -.9888     0.8436E-3  -.9737   
  12.95     0.1389E-3  -.9888     0.8561E-3  -.9736   
  12.97     0.1399E-3  -.9887     0.8688E-3  -.9734   
  12.99     0.1410E-3  -.9887     0.8818E-3  -.9732   
  13.01     0.1420E-3  -.9887     0.8951E-3  -.9730   
  13.03     0.1431E-3  -.9887     0.9087E-3  -.9729   
  13.05     0.1442E-3  -.9886     0.9226E-3  -.9727   
  13.07     0.1453E-3  -.9886     0.9368E-3  -.9725   
  13.09     0.1464E-3  -.9886     0.9513E-3  -.9723   
  13.11     0.1475E-3  -.9885     0.9662E-3  -.9721   
  13.13     0.1487E-3  -.9885     0.9814E-3  -.9719   
  13.15     0.1498E-3  -.9885     0.9970E-3  -.9717   
  13.17     0.1510E-3  -.9885     0.1013E-2  -.9715   
  13.19     0.1521E-3  -.9884     0.1029E-2  -.9713   
  13.21     0.1533E-3  -.9884     0.1046E-2  -.9711   
  13.23     0.1545E-3  -.9884     0.1063E-2  -.9709   
  13.25     0.1558E-3  -.9883     0.1081E-2  -.9707   
  13.27     0.1570E-3  -.9883     0.1099E-2  -.9705   
  13.29     0.1583E-3  -.9883     0.1117E-2  -.9703   
  13.31     0.1595E-3  -.9882     0.1136E-2  -.9700   
  13.33     0.1608E-3  -.9882     0.1156E-2  -.9698   
  13.35     0.1621E-3  -.9882     0.1176E-2  -.9696   
  13.37     0.1634E-3  -.9881     0.1196E-2  -.9693   
  13.39     0.1648E-3  -.9881     0.1217E-2  -.9691   
  13.41     0.1661E-3  -.9881     0.1239E-2  -.9688   
  13.43     0.1675E-3  -.9880     0.1261E-2  -.9686   
  13.45     0.1689E-3  -.9880     0.1283E-2  -.9683   
  13.47     0.1703E-3  -.9880     0.1307E-2  -.9681   
  13.49     0.1717E-3  -.9879     0.1331E-2  -.9678   
  13.51     0.1732E-3  -.9879     0.1355E-2  -.9676   
  13.53     0.1746E-3  -.9879     0.1381E-2  -.9673   
  13.55     0.1761E-3  -.9878     0.1407E-2  -.9670   
  13.57     0.1776E-3  -.9878     0.1434E-2  -.9667   
  13.59     0.1791E-3  -.9878     0.1461E-2  -.9664   
  13.61     0.1807E-3  -.9877     0.1489E-2  -.9661   
  13.63     0.1822E-3  -.9877     0.1519E-2  -.9658   
  13.65     0.1838E-3  -.9877     0.1549E-2  -.9655   
  13.67     0.1854E-3  -.9876     0.1580E-2  -.9652   
  13.69     0.1870E-3  -.9876     0.1612E-2  -.9649   
  13.71     0.1887E-3  -.9875     0.1644E-2  -.9646   
  13.73     0.1904E-3  -.9875     0.1678E-2  -.9642   
  13.75     0.1921E-3  -.9875     0.1713E-2  -.9639   
  13.77     0.1938E-3  -.9874     0.1749E-2  -.9636   
  13.79     0.1955E-3  -.9874     0.1786E-2  -.9632   
  13.81     0.1973E-3  -.9873     0.1825E-2  -.9629   
  13.83     0.1991E-3  -.9873     0.1864E-2  -.9625   
  13.85     0.2009E-3  -.9873     0.1905E-2  -.9621   
  13.87     0.2028E-3  -.9872     0.1948E-2  -.9617   
  13.89     0.2047E-3  -.9872     0.1991E-2  -.9613   
  13.91     0.2066E-3  -.9871     0.2036E-2  -.9609   
  13.93     0.2085E-3  -.9871     0.2083E-2  -.9605   
  13.95     0.2105E-3  -.9871     0.2132E-2  -.9601   
  13.97     0.2125E-3  -.9870     0.2182E-2  -.9597   
  13.99     0.2145E-3  -.9870     0.2233E-2  -.9592   
  14.01     0.2165E-3  -.9869     0.2287E-2  -.9588   
  14.03     0.2186E-3  -.9869     0.2343E-2  -.9583   
  14.05     0.2207E-3  -.9868     0.2401E-2  -.9579   
  14.07     0.2229E-3  -.9868     0.2461E-2  -.9574   
  14.09     0.2251E-3  -.9868     0.2523E-2  -.9569   
  14.11     0.2273E-3  -.9867     0.2587E-2  -.9564   
  14.13     0.2295E-3  -.9867     0.2654E-2  -.9559   
  14.15     0.2318E-3  -.9866     0.2724E-2  -.9553   
  14.17     0.2342E-3  -.9866     0.2797E-2  -.9548   
  14.19     0.2365E-3  -.9865     0.2872E-2  -.9542   
  14.21     0.2389E-3  -.9865     0.2951E-2  -.9536   
  14.23     0.2414E-3  -.9864     0.3032E-2  -.9530   
  14.25     0.2439E-3  -.9864     0.3118E-2  -.9524   
  14.27     0.2464E-3  -.9863     0.3207E-2  -.9518   
  14.29     0.2490E-3  -.9863     0.3299E-2  -.9512   
  14.31     0.2516E-3  -.9862     0.3396E-2  -.9505   
  14.33     0.2542E-3  -.9862     0.3497E-2  -.9498   
  14.35     0.2569E-3  -.9861     0.3603E-2  -.9491   
  14.37     0.2597E-3  -.9861     0.3714E-2  -.9484   
  14.39     0.2625E-3  -.9860     0.3830E-2  -.9476   
  14.41     0.2653E-3  -.9860     0.3951E-2  -.9469   
  14.43     0.2682E-3  -.9859     0.4078E-2  -.9461   
  14.45     0.2712E-3  -.9859     0.4211E-2  -.9453   
  14.47     0.2742E-3  -.9858     0.4351E-2  -.9444   
  14.49     0.2772E-3  -.9858     0.4499E-2  -.9435   
  14.51     0.2804E-3  -.9857     0.4653E-2  -.9426   
  14.53     0.2835E-3  -.9856     0.4816E-2  -.9417   
  14.55     0.2868E-3  -.9856     0.4988E-2  -.9407   
  14.57     0.2901E-3  -.9855     0.5169E-2  -.9397   
  14.59     0.2934E-3  -.9855     0.5359E-2  -.9387   
  14.61     0.2968E-3  -.9854     0.5561E-2  -.9376   
  14.63     0.3003E-3  -.9854     0.5774E-2  -.9365   
  14.65     0.3038E-3  -.9853     0.6000E-2  -.9354   
  14.67     0.3075E-3  -.9852     0.6239E-2  -.9342   
  14.69     0.3112E-3  -.9852     0.6493E-2  -.9329   
  14.71     0.3149E-3  -.9851     0.6763E-2  -.9316   
  14.73     0.3188E-3  -.9850     0.7049E-2  -.9303   
  14.75     0.3227E-3  -.9850     0.7355E-2  -.9288   
  14.77     0.3267E-3  -.9849     0.7680E-2  -.9274   
  14.79     0.3307E-3  -.9849     0.8028E-2  -.9258   
  14.81     0.3349E-3  -.9848     0.8400E-2  -.9242   
  14.83     0.3391E-3  -.9847     0.8798E-2  -.9226   
  14.85     0.3435E-3  -.9846     0.9224E-2  -.9208   
  14.87     0.3479E-3  -.9846     0.9683E-2  -.9190   
  14.89     0.3524E-3  -.9845     0.1018E-1  -.9171   
  14.91     0.3570E-3  -.9844     0.1071E-1  -.9150   
  14.93     0.3618E-3  -.9844     0.1128E-1  -.9129   
  14.95     0.3666E-3  -.9843     0.1191E-1  -.9107   
  14.97     0.3715E-3  -.9842     0.1258E-1  -.9083   
  14.99     0.3766E-3  -.9841     0.1331E-1  -.9058   
  15.02     0.3817E-3  -.9841     0.1411E-1  -.9032   
  15.04     0.3870E-3  -.9840     0.1499E-1  -.9004   
  15.06     0.3924E-3  -.9839     0.1594E-1  -.8975   
  15.08     0.3979E-3  -.9838     0.1699E-1  -.8944   
  15.10     0.4035E-3  -.9838     0.1815E-1  -.8910   
  15.12     0.4093E-3  -.9837     0.1943E-1  -.8875   
  15.14     0.4153E-3  -.9836     0.2084E-1  -.8837   
  15.16     0.4213E-3  -.9835     0.2241E-1  -.8797   
  15.18     0.4275E-3  -.9834     0.2417E-1  -.8754   
  15.20     0.4339E-3  -.9833     0.2614E-1  -.8708   
  15.22     0.4404E-3  -.9833     0.2836E-1  -.8658   
  15.24     0.4471E-3  -.9832     0.3086E-1  -.8604   
  15.26     0.4540E-3  -.9831     0.3371E-1  -.8546   
  15.28     0.4610E-3  -.9830     0.3696E-1  -.8484   
  15.30     0.4683E-3  -.9829     0.4069E-1  -.8415   
  15.32     0.4757E-3  -.9828     0.4501E-1  -.8341   
  15.34     0.4833E-3  -.9827     0.5002E-1  -.8261   
  15.36     0.4911E-3  -.9826     0.5590E-1  -.8173   
  15.38     0.4991E-3  -.9825     0.6283E-1  -.8077   
  15.40     0.5074E-3  -.9824     0.7108E-1  -.7971   
  15.42     0.5159E-3  -.9823     0.8098E-1  -.7856   
  15.44     0.5246E-3  -.9822     0.9297E-1  -.7730   
  15.46     0.5336E-3  -.9821     0.1076     -.7594   
  15.48     0.5428E-3  -.9820     0.1257     -.7448   
  15.50     0.5523E-3  -.9819     0.1483     -.7293   
  15.52     0.5621E-3  -.9818     0.1767     -.7137   
  15.54     0.5722E-3  -.9817     0.2125     -.6989   
  15.56     0.5826E-3  -.9815     0.2579     -.6871   
  15.58     0.5933E-3  -.9814     0.3147     -.6821   
  15.60     0.6044E-3  -.9813     0.3838     -.6900   
  15.62     0.6158E-3  -.9812     0.4627     -.7197   
  15.64     0.6275E-3  -.9811     0.5422     -.7808   
  15.66     0.6397E-3  -.9809     0.6042     -.8772   
  15.68     0.6522E-3  -.9808     0.6274     -.9982   
  15.70     0.6652E-3  -.9807     0.6023     -1.119   
  15.72     0.6786E-3  -.9805     0.5393     -1.214   
  15.74     0.6924E-3  -.9804     0.4595     -1.273   
  15.76     0.7068E-3  -.9803     0.3808     -1.302   
  15.78     0.7217E-3  -.9801     0.3122     -1.309   
  15.80     0.7370E-3  -.9800     0.2559     -1.304   
  15.82     0.7530E-3  -.9798     0.2110     -1.292   
  15.84     0.7695E-3  -.9797     0.1754     -1.277   
  15.86     0.7867E-3  -.9795     0.1473     -1.261   
  15.88     0.8045E-3  -.9794     0.1250     -1.246   
  15.90     0.8231E-3  -.9792     0.1070     -1.231   
  15.92     0.8423E-3  -.9790     0.9249E-1  -1.218   
  15.94     0.8623E-3  -.9789     0.8060E-1  -1.205   
  15.96     0.8832E-3  -.9787     0.7077E-1  -1.194   
  15.98     0.9049E-3  -.9785     0.6259E-1  -1.183   
  16.00     0.9275E-3  -.9783     0.5570E-1  -1.174   
  16.02     0.9511E-3  -.9781     0.4987E-1  -1.165   
  16.04     0.9757E-3  -.9780     0.4489E-1  -1.157   
  16.06     0.1001E-2  -.9778     0.4060E-1  -1.149   
  16.08     0.1028E-2  -.9776     0.3689E-1  -1.143   
  16.10     0.1056E-2  -.9773     0.3366E-1  -1.136   
  16.12     0.1086E-2  -.9771     0.3084E-1  -1.131   
  16.14     0.1117E-2  -.9769     0.2835E-1  -1.125   
  16.16     0.1149E-2  -.9767     0.2615E-1  -1.120   
  16.18     0.1183E-2  -.9765     0.2419E-1  -1.116   
  16.20     0.1219E-2  -.9762     0.2245E-1  -1.111   
  16.22     0.1257E-2  -.9760     0.2088E-1  -1.107   
  16.24     0.1296E-2  -.9757     0.1948E-1  -1.103   
  16.26     0.1338E-2  -.9755     0.1821E-1  -1.100   
  16.28     0.1382E-2  -.9752     0.1707E-1  -1.097   
  16.30     0.1429E-2  -.9749     0.1603E-1  -1.093   
  16.32     0.1478E-2  -.9746     0.1508E-1  -1.090   
  16.34     0.1531E-2  -.9743     0.1422E-1  -1.088   
  16.36     0.1586E-2  -.9740     0.1343E-1  -1.085   
  16.38     0.1645E-2  -.9737     0.1270E-1  -1.083   
  16.40     0.1708E-2  -.9734     0.1203E-1  -1.080   
  16.42     0.1775E-2  -.9730     0.1142E-1  -1.078   
  16.44     0.1846E-2  -.9727     0.1086E-1  -1.076   
  16.46     0.1923E-2  -.9723     0.1033E-1  -1.074   
  16.48     0.2005E-2  -.9719     0.9849E-2  -1.072   
  16.50     0.2092E-2  -.9715     0.9400E-2  -1.070   
  16.52     0.2187E-2  -.9711     0.8983E-2  -1.068   
  16.54     0.2289E-2  -.9707     0.8595E-2  -1.066   
  16.56     0.2399E-2  -.9702     0.8234E-2  -1.065   
  16.58     0.2519E-2  -.9698     0.7898E-2  -1.063   
  16.60     0.2648E-2  -.9693     0.7584E-2  -1.062   
  16.62     0.2789E-2  -.9687     0.7291E-2  -1.060   
  16.64     0.2943E-2  -.9682     0.7018E-2  -1.059   
  16.66     0.3112E-2  -.9676     0.6762E-2  -1.057   
  16.68     0.3297E-2  -.9670     0.6522E-2  -1.056   
  16.70     0.3501E-2  -.9664     0.6298E-2  -1.055   
  16.72     0.3727E-2  -.9657     0.6089E-2  -1.054   
  16.74     0.3978E-2  -.9650     0.5893E-2  -1.052   
  16.76     0.4257E-2  -.9642     0.5709E-2  -1.051   
  16.78     0.4570E-2  -.9634     0.5538E-2  -1.050   
  16.80     0.4922E-2  -.9625     0.5378E-2  -1.049   
  16.82     0.5321E-2  -.9616     0.5230E-2  -1.048   
  16.84     0.5773E-2  -.9606     0.5091E-2  -1.047   
  16.86     0.6291E-2  -.9595     0.4963E-2  -1.046   
  16.88     0.6886E-2  -.9583     0.4845E-2  -1.045   
  16.90     0.7576E-2  -.9571     0.4736E-2  -1.044   
  16.92     0.8381E-2  -.9557     0.4637E-2  -1.043   
  16.94     0.9328E-2  -.9542     0.4547E-2  -1.042   
  16.96     0.1045E-1  -.9526     0.4467E-2  -1.041   
  16.98     0.1180E-1  -.9509     0.4396E-2  -1.041   
  17.00     0.1342E-1  -.9490     0.4336E-2  -1.040   
  17.02     0.1540E-1  -.9470     0.4286E-2  -1.039   
  17.04     0.1785E-1  -.9449     0.4248E-2  -1.038   
  17.06     0.2089E-1  -.9426     0.4221E-2  -1.037   
  17.08     0.2470E-1  -.9403     0.4207E-2  -1.036   
  17.10     0.2952E-1  -.9382     0.4208E-2  -1.036   
  17.12     0.3560E-1  -.9364     0.4225E-2  -1.035   
  17.14     0.4318E-1  -.9357     0.4261E-2  -1.034   
  17.16     0.5234E-1  -.9367     0.4318E-2  -1.033   
  17.18     0.6267E-1  -.9406     0.4400E-2  -1.032   
  17.20     0.7283E-1  -.9488     0.4512E-2  -1.032   
  17.22     0.8037E-1  -.9613     0.4660E-2  -1.031   
  17.24     0.8264E-1  -.9767     0.4853E-2  -1.030   
  17.26     0.7873E-1  -.9916     0.5100E-2  -1.029   
  17.28     0.7027E-1  -1.003     0.5417E-2  -1.028   
  17.30     0.6002E-1  -1.009     0.5822E-2  -1.027   
  17.32     0.5015E-1  -1.012     0.6340E-2  -1.026   
  17.34     0.4166E-1  -1.012     0.7004E-2  -1.025   
  17.36     0.3476E-1  -1.011     0.7856E-2  -1.024   
  17.38     0.2932E-1  -1.009     0.8949E-2  -1.024   
  17.40     0.2506E-1  -1.006     0.1034E-1  -1.023   
  17.42     0.2175E-1  -1.004     0.1208E-1  -1.022   
  17.44     0.1917E-1  -1.001     0.1414E-1  -1.022   
  17.46     0.1716E-1  -.9988     0.1638E-1  -1.023   
  17.48     0.1561E-1  -.9963     0.1840E-1  -1.025   
  17.50     0.1442E-1  -.9940     0.1961E-1  -1.028   
  17.52     0.1352E-1  -.9917     0.1953E-1  -1.031   
  17.54     0.1287E-1  -.9895     0.1818E-1  -1.033   
  17.56     0.1243E-1  -.9873     0.1607E-1  -1.035   
  17.58     0.1219E-1  -.9852     0.1377E-1  -1.036   
  17.60     0.1214E-1  -.9831     0.1167E-1  -1.036   
  17.62     0.1226E-1  -.9810     0.9898E-2  -1.036   
  17.64     0.1256E-1  -.9789     0.8469E-2  -1.035   
  17.66     0.1306E-1  -.9767     0.7335E-2  -1.034   
  17.68     0.1377E-1  -.9745     0.6438E-2  -1.033   
  17.70     0.1474E-1  -.9722     0.5726E-2  -1.033   
  17.72     0.1601E-1  -.9697     0.5158E-2  -1.032   
  17.74     0.1765E-1  -.9672     0.4701E-2  -1.031   
  17.76     0.1975E-1  -.9646     0.4330E-2  -1.030   
  17.78     0.2244E-1  -.9619     0.4028E-2  -1.030   
  17.80     0.2588E-1  -.9592     0.3781E-2  -1.029   
  17.82     0.3029E-1  -.9566     0.3578E-2  -1.028   
  17.84     0.3591E-1  -.9543     0.3411E-2  -1.028   
  17.86     0.4304E-1  -.9529     0.3276E-2  -1.027   
  17.88     0.5181E-1  -.9529     0.3167E-2  -1.026   
  17.90     0.6205E-1  -.9556     0.3081E-2  -1.026   
  17.92     0.7276E-1  -.9622     0.3016E-2  -1.025   
  17.94     0.8175E-1  -.9736     0.2970E-2  -1.025   
  17.96     0.8615E-1  -.9888     0.2942E-2  -1.024   
  17.98     0.8415E-1  -1.005     0.2932E-2  -1.024   
  18.00     0.7658E-1  -1.018     0.2940E-2  -1.023   
  18.02     0.6613E-1  -1.027     0.2967E-2  -1.022   
  18.04     0.5540E-1  -1.031     0.3014E-2  -1.022   
  18.06     0.4585E-1  -1.032     0.3084E-2  -1.021   
  18.08     0.3794E-1  -1.031     0.3178E-2  -1.021   
  18.10     0.3160E-1  -1.029     0.3302E-2  -1.020   
  18.12     0.2659E-1  -1.027     0.3459E-2  -1.020   
  18.14     0.2263E-1  -1.024     0.3658E-2  -1.019   
  18.16     0.1949E-1  -1.022     0.3907E-2  -1.018   
  18.18     0.1698E-1  -1.019     0.4218E-2  -1.018   
  18.20     0.1496E-1  -1.017     0.4607E-2  -1.017   
  18.22     0.1332E-1  -1.015     0.5096E-2  -1.016   
  18.24     0.1198E-1  -1.013     0.5713E-2  -1.015   
  18.26     0.1087E-1  -1.011     0.6495E-2  -1.015   
  18.28     0.9953E-2  -1.009     0.7490E-2  -1.014   
  18.30     0.9190E-2  -1.008     0.8759E-2  -1.013   
  18.32     0.8554E-2  -1.006     0.1037E-1  -1.013   
  18.34     0.8023E-2  -1.005     0.1236E-1  -1.012   
  18.36     0.7581E-2  -1.003     0.1472E-1  -1.013   
  18.38     0.7215E-2  -1.002     0.1726E-1  -1.014   
  18.40     0.6916E-2  -1.001     0.1953E-1  -1.016   
  18.42     0.6676E-2  -.9993     0.2086E-1  -1.020   
  18.44     0.6490E-2  -.9981     0.2072E-1  -1.023   
  18.46     0.6352E-2  -.9969     0.1916E-1  -1.027   
  18.48     0.6261E-2  -.9957     0.1678E-1  -1.029   
  18.50     0.6214E-2  -.9945     0.1421E-1  -1.030   
  18.52     0.6213E-2  -.9933     0.1188E-1  -1.030   
  18.54     0.6257E-2  -.9922     0.9914E-2  -1.030   
  18.56     0.6349E-2  -.9910     0.8335E-2  -1.029   
  18.58     0.6492E-2  -.9898     0.7083E-2  -1.029   
  18.60     0.6693E-2  -.9886     0.6093E-2  -1.028   
  18.62     0.6958E-2  -.9874     0.5309E-2  -1.027   
  18.64     0.7297E-2  -.9861     0.4683E-2  -1.027   
  18.66     0.7723E-2  -.9848     0.4179E-2  -1.026   
  18.68     0.8255E-2  -.9834     0.3770E-2  -1.025   
  18.70     0.8915E-2  -.9820     0.3437E-2  -1.025   
  18.72     0.9734E-2  -.9804     0.3163E-2  -1.024   
  18.74     0.1075E-1  -.9789     0.2937E-2  -1.024   
  18.76     0.1202E-1  -.9772     0.2751E-2  -1.023   
  18.78     0.1362E-1  -.9755     0.2597E-2  -1.023   
  18.80     0.1564E-1  -.9737     0.2471E-2  -1.022   
  18.82     0.1821E-1  -.9720     0.2370E-2  -1.022   
  18.84     0.2146E-1  -.9705     0.2290E-2  -1.021   
  18.86     0.2557E-1  -.9694     0.2231E-2  -1.021   
  18.88     0.3064E-1  -.9691     0.2190E-2  -1.021   
  18.90     0.3660E-1  -.9702     0.2168E-2  -1.020   
  18.92     0.4293E-1  -.9736     0.2165E-2  -1.020   
  18.94     0.4844E-1  -.9797     0.2183E-2  -1.019   
  18.96     0.5145E-1  -.9882     0.2224E-2  -1.019   
  18.98     0.5078E-1  -.9973     0.2291E-2  -1.019   
  19.00     0.4672E-1  -1.005     0.2390E-2  -1.018   
  19.02     0.4078E-1  -1.010     0.2527E-2  -1.018   
  19.04     0.3453E-1  -1.013     0.2711E-2  -1.017   
  19.06     0.2892E-1  -1.013     0.2956E-2  -1.017   
  19.08     0.2425E-1  -1.012     0.3279E-2  -1.017   
  19.10     0.2052E-1  -1.011     0.3699E-2  -1.016   
  19.12     0.1759E-1  -1.009     0.4239E-2  -1.016   
  19.14     0.1530E-1  -1.008     0.4917E-2  -1.016   
  19.16     0.1352E-1  -1.006     0.5726E-2  -1.016   
  19.18     0.1212E-1  -1.004     0.6606E-2  -1.016   
  19.20     0.1102E-1  -1.002     0.7399E-2  -1.017   
  19.22     0.1017E-1  -1.000     0.7871E-2  -1.018   
  19.24     0.9508E-2  -.9988     0.7829E-2  -1.019   
  19.26     0.9005E-2  -.9973     0.7284E-2  -1.020   
  19.28     0.8633E-2  -.9957     0.6437E-2  -1.021   
  19.30     0.8376E-2  -.9942     0.5519E-2  -1.021   
  19.32     0.8219E-2  -.9927     0.4678E-2  -1.021   
  19.34     0.8154E-2  -.9913     0.3970E-2  -1.021   
  19.36     0.8178E-2  -.9898     0.3397E-2  -1.021   
  19.38     0.8289E-2  -.9883     0.2942E-2  -1.020   
  19.40     0.8490E-2  -.9868     0.2581E-2  -1.020   
  19.42     0.8785E-2  -.9852     0.2294E-2  -1.020   
  19.44     0.9186E-2  -.9836     0.2063E-2  -1.019   
  19.46     0.9707E-2  -.9820     0.1877E-2  -1.019   
  19.48     0.1037E-1  -.9803     0.1725E-2  -1.019   
  19.50     0.1119E-1  -.9785     0.1600E-2  -1.018   
  19.52     0.1222E-1  -.9766     0.1496E-2  -1.018   
  19.54     0.1350E-1  -.9746     0.1410E-2  -1.018   
  19.56     0.1509E-1  -.9725     0.1339E-2  -1.018   
  19.58     0.1709E-1  -.9703     0.1279E-2  -1.017   
  19.60     0.1961E-1  -.9680     0.1230E-2  -1.017   
  19.62     0.2280E-1  -.9657     0.1189E-2  -1.017   
  19.64     0.2684E-1  -.9636     0.1156E-2  -1.017   
  19.66     0.3197E-1  -.9618     0.1131E-2  -1.016   
  19.68     0.3837E-1  -.9609     0.1112E-2  -1.016   
  19.70     0.4609E-1  -.9616     0.1100E-2  -1.016   
  19.72     0.5475E-1  -.9648     0.1095E-2  -1.016   
  19.74     0.6314E-1  -.9715     0.1097E-2  -1.016   
  19.76     0.6918E-1  -.9820     0.1108E-2  -1.015   
  19.78     0.7069E-1  -.9946     0.1127E-2  -1.015   
  19.80     0.6708E-1  -1.006     0.1156E-2  -1.015   
  19.82     0.5984E-1  -1.015     0.1198E-2  -1.015   
  19.84     0.5129E-1  -1.020     0.1255E-2  -1.015   
  19.86     0.4316E-1  -1.022     0.1331E-2  -1.014   
  19.88     0.3622E-1  -1.022     0.1432E-2  -1.014   
  19.90     0.3063E-1  -1.020     0.1563E-2  -1.014   
  19.92     0.2625E-1  -1.018     0.1735E-2  -1.014   
  19.94     0.2287E-1  -1.015     0.1956E-2  -1.014   
  19.96     0.2028E-1  -1.013     0.2235E-2  -1.013   
  19.98     0.1832E-1  -1.010     0.2576E-2  -1.013   
  20.00     0.1686E-1  -1.008     0.2962E-2  -1.013   
# 
# 03/01/2017 at 15:53 YAMBO @ anomaly [start]
# 03/01/2017 at 15:53                 [end]
#  
# Timing   [Min/Max/Average]: 01s/01s/01s
#
# .-Input file : yambo.in
# | optics                       # [R OPT] Optics
# | bse                          # [R BSE] Bethe Salpeter Equation.
# | bsk                          # [R BSK] Bethe Salpeter Equation kernel
# | bss                          # [R BSS] Bethe Salpeter Equation solver
# | BoseTemp= 0.000000     eV    # Bosonic Temperature
# | FFTGvecs=  9939        RL    # [FFT] Plane-waves
# | X_Threads= 1                 # [OPENMP/X] Number of threads for response functions
# | DIP_Threads= 1               # [OPENMP/X] Number of threads for dipoles
# | NonPDirs= "XYZ"              # [X/BSS] Non periodic chartesian directions (X,Y,Z,XY...)
# | BSEmod= "retarded"           # [BSE] resonant/retarded/coupling
# | BSKmod= "Hartree"            # [BSE] IP/Hartree/HF/ALDA/SEX/BSfxc
# | BSSmod= "d"                  # [BSS] (h)aydock/(d)iagonalization/(i)nversion/(t)ddft`
# | BSENGexx=  9045        RL    # [BSK] Exchange components
# | % KfnQP_E
# |  7.600000 | 1.000000 | 1.000000 |        # [EXTQP BSK BSS] E parameters  (c/v) eV|adim|adim
# | %
# | % BEnRange
# |   0.00000 | 20.00000 | eV    # [BSS] Energy range
# | %
# | % BDmRange
# |   0.10000 |  0.10000 | eV    # [BSS] Damping range
# | %
# | BEnSteps= 1000               # [BSS] Energy steps
# | % BLongDir
# | 0.1000E-4 | 0.000    | 0.000    |        # [BSS] [cc] Electric Field
# | %
# | % BSEBands
# |    1 | 200 |                 # [BSK] Bands range
# | %
