#                                                           
#   __   __     _        __  __       ____      U  ___  u   
#   \ \ / / U  /"\  U u |" \/ "| u U | __") u    \/"_ \/    
#    \ V /   \/ _ \/   \| |\/| |/   \|  _ \/     | | | |    
#   U_|"|_u  / ___ \    | |  | |     | |_) | .-,_| |_| |    
#     |_|   /_/   \_\   |_|  |_|     |____/   \_)-\___/     
# .-,//|(_   \\    >>  <<,-,,-.     _|| \\_        \\       
#  \_) (__) (__)  (__)  (./  \.)   (__) (__)      (__)      
#                                                           
#                                                           
#        Version 4.3.0 Revision 15624 Hash 7ed12fb          
#                      MPI+SLK Build                        
#                http://www.yambo-code.org                  
#
# Joint density of states @ Q(1) [q->0 direction] :0.1000E-4  0.000     0.000   
#
# - Energies      are  Analyt. E
# - The Green`s function is Retarded -
#
#   BSK|Identifier              :3973
#      |Dimension               :49
#      |Bands                   :1 - 50
#      |Exchange           [res]: yes
#      |Correlation        [res]: no
#      |Kernel`s coupling       : no
#      |Exchange           [cpl]: no
#      |Correlation        [cpl]: no
#      |W interaction is bare   : no
#      |ALDA kernel in R-space  : no
#      |RL vectors    [exchange]:4067
#      |E/h energy range    [ev]:-1.000000 - -1.000000
#      |Coupling range     [o/o]: 100.0000 -  100.0000
#
#    E/ev[1]      jdos-Im[2]   jdos-Re[3]   jdoso-Im[4]  jdoso-Re[5]  jdos`-Im[6]  jdos`-Re[7]
#
    0.000000     0.000000     0.764741     0.000000     0.771649
   0.2002E-1    0.4812E-5    0.7647       0.4948E-5    0.7716   
   0.4004E-1    0.9624E-5    0.7647       0.9896E-5    0.7717   
   0.6006E-1    0.1444E-4    0.7647       0.1484E-4    0.7717   
   0.8008E-1    0.1925E-4    0.7647       0.1979E-4    0.7717   
   0.1001       0.2406E-4    0.7648       0.2474E-4    0.7717   
   0.1201       0.2887E-4    0.7648       0.2969E-4    0.7717   
   0.1401       0.3369E-4    0.7648       0.3464E-4    0.7717   
   0.1602       0.3850E-4    0.7648       0.3959E-4    0.7717   
   0.1802       0.4331E-4    0.7648       0.4454E-4    0.7717   
   0.2002       0.4813E-4    0.7648       0.4949E-4    0.7717   
   0.2202       0.5294E-4    0.7648       0.5444E-4    0.7717   
   0.2402       0.5776E-4    0.7648       0.5939E-4    0.7717   
   0.2603       0.6257E-4    0.7648       0.6434E-4    0.7717   
   0.2803       0.6739E-4    0.7648       0.6929E-4    0.7717   
   0.3003       0.7220E-4    0.7648       0.7425E-4    0.7718   
   0.3203       0.7702E-4    0.7649       0.7920E-4    0.7718   
   0.3403       0.8184E-4    0.7649       0.8415E-4    0.7718   
   0.3604       0.8666E-4    0.7649       0.8911E-4    0.7718   
   0.3804       0.9148E-4    0.7649       0.9406E-4    0.7718   
   0.4004       0.9629E-4    0.7649       0.9902E-4    0.7718   
   0.4204       0.1011E-3    0.7650       0.1040E-3    0.7719   
   0.4404       0.1059E-3    0.7650       0.1089E-3    0.7719   
   0.4605       0.1108E-3    0.7650       0.1139E-3    0.7719   
   0.4805       0.1156E-3    0.7650       0.1189E-3    0.7719   
   0.5005       0.1204E-3    0.7650       0.1238E-3    0.7720   
   0.5205       0.1252E-3    0.7651       0.1288E-3    0.7720   
   0.5405       0.1301E-3    0.7651       0.1337E-3    0.7720   
   0.5606       0.1349E-3    0.7651       0.1387E-3    0.7720   
   0.5806       0.1397E-3    0.7651       0.1437E-3    0.7721   
   0.6006       0.1445E-3    0.7652       0.1486E-3    0.7721   
   0.6206       0.1494E-3    0.7652       0.1536E-3    0.7721   
   0.6406       0.1542E-3    0.7652       0.1586E-3    0.7722   
   0.6607       0.1590E-3    0.7653       0.1635E-3    0.7722   
   0.6807       0.1639E-3    0.7653       0.1685E-3    0.7722   
   0.7007       0.1687E-3    0.7653       0.1735E-3    0.7723   
   0.7207       0.1735E-3    0.7654       0.1785E-3    0.7723   
   0.7407       0.1784E-3    0.7654       0.1834E-3    0.7723   
   0.7608       0.1832E-3    0.7654       0.1884E-3    0.7724   
   0.7808       0.1881E-3    0.7655       0.1934E-3    0.7724   
   0.8008       0.1929E-3    0.7655       0.1984E-3    0.7724   
   0.8208       0.1977E-3    0.7656       0.2034E-3    0.7725   
   0.8408       0.2026E-3    0.7656       0.2083E-3    0.7725   
   0.8609       0.2074E-3    0.7656       0.2133E-3    0.7726   
   0.8809       0.2123E-3    0.7657       0.2183E-3    0.7726   
   0.9009       0.2171E-3    0.7657       0.2233E-3    0.7727   
   0.9209       0.2220E-3    0.7658       0.2283E-3    0.7727   
   0.9409       0.2269E-3    0.7658       0.2333E-3    0.7727   
   0.9610       0.2317E-3    0.7659       0.2383E-3    0.7728   
   0.9810       0.2366E-3    0.7659       0.2433E-3    0.7728   
    1.001       0.2414E-3    0.7659       0.2483E-3    0.7729   
    1.021       0.2463E-3    0.7660       0.2533E-3    0.7729   
    1.041       0.2512E-3    0.7660       0.2583E-3    0.7730   
    1.061       0.2560E-3    0.7661       0.2633E-3    0.7730   
    1.081       0.2609E-3    0.7661       0.2683E-3    0.7731   
    1.101       0.2658E-3    0.7662       0.2733E-3    0.7732   
    1.121       0.2706E-3    0.7663       0.2783E-3    0.7732   
    1.141       0.2755E-3    0.7663       0.2833E-3    0.7733   
    1.161       0.2804E-3    0.7664       0.2883E-3    0.7733   
    1.181       0.2853E-3    0.7664       0.2934E-3    0.7734   
    1.201       0.2901E-3    0.7665       0.2984E-3    0.7734   
    1.221       0.2950E-3    0.7665       0.3034E-3    0.7735   
    1.241       0.2999E-3    0.7666       0.3084E-3    0.7736   
    1.261       0.3048E-3    0.7667       0.3135E-3    0.7736   
    1.281       0.3097E-3    0.7667       0.3185E-3    0.7737   
    1.301       0.3146E-3    0.7668       0.3235E-3    0.7737   
    1.321       0.3195E-3    0.7668       0.3286E-3    0.7738   
    1.341       0.3244E-3    0.7669       0.3336E-3    0.7739   
    1.361       0.3293E-3    0.7670       0.3386E-3    0.7739   
    1.381       0.3342E-3    0.7670       0.3437E-3    0.7740   
    1.401       0.3391E-3    0.7671       0.3487E-3    0.7741   
    1.421       0.3440E-3    0.7672       0.3538E-3    0.7742   
    1.441       0.3489E-3    0.7672       0.3588E-3    0.7742   
    1.461       0.3538E-3    0.7673       0.3639E-3    0.7743   
    1.481       0.3588E-3    0.7674       0.3690E-3    0.7744   
    1.502       0.3637E-3    0.7675       0.3740E-3    0.7744   
    1.522       0.3686E-3    0.7675       0.3791E-3    0.7745   
    1.542       0.3735E-3    0.7676       0.3842E-3    0.7746   
    1.562       0.3785E-3    0.7677       0.3892E-3    0.7747   
    1.582       0.3834E-3    0.7678       0.3943E-3    0.7748   
    1.602       0.3883E-3    0.7678       0.3994E-3    0.7748   
    1.622       0.3933E-3    0.7679       0.4045E-3    0.7749   
    1.642       0.3982E-3    0.7680       0.4096E-3    0.7750   
    1.662       0.4032E-3    0.7681       0.4147E-3    0.7751   
    1.682       0.4081E-3    0.7682       0.4198E-3    0.7752   
    1.702       0.4131E-3    0.7682       0.4248E-3    0.7752   
    1.722       0.4180E-3    0.7683       0.4300E-3    0.7753   
    1.742       0.4230E-3    0.7684       0.4351E-3    0.7754   
    1.762       0.4280E-3    0.7685       0.4402E-3    0.7755   
    1.782       0.4329E-3    0.7686       0.4453E-3    0.7756   
    1.802       0.4379E-3    0.7687       0.4504E-3    0.7757   
    1.822       0.4429E-3    0.7688       0.4555E-3    0.7758   
    1.842       0.4479E-3    0.7688       0.4606E-3    0.7759   
    1.862       0.4528E-3    0.7689       0.4658E-3    0.7760   
    1.882       0.4578E-3    0.7690       0.4709E-3    0.7761   
    1.902       0.4628E-3    0.7691       0.4760E-3    0.7761   
    1.922       0.4678E-3    0.7692       0.4812E-3    0.7762   
    1.942       0.4728E-3    0.7693       0.4863E-3    0.7763   
    1.962       0.4778E-3    0.7694       0.4915E-3    0.7764   
    1.982       0.4828E-3    0.7695       0.4966E-3    0.7765   
    2.002       0.4878E-3    0.7696       0.5018E-3    0.7766   
    2.022       0.4928E-3    0.7697       0.5069E-3    0.7767   
    2.042       0.4979E-3    0.7698       0.5121E-3    0.7768   
    2.062       0.5029E-3    0.7699       0.5173E-3    0.7769   
    2.082       0.5079E-3    0.7700       0.5224E-3    0.7770   
    2.102       0.5129E-3    0.7701       0.5276E-3    0.7772   
    2.122       0.5180E-3    0.7702       0.5328E-3    0.7773   
    2.142       0.5230E-3    0.7703       0.5380E-3    0.7774   
    2.162       0.5281E-3    0.7704       0.5432E-3    0.7775   
    2.182       0.5331E-3    0.7705       0.5484E-3    0.7776   
    2.202       0.5382E-3    0.7706       0.5536E-3    0.7777   
    2.222       0.5432E-3    0.7707       0.5588E-3    0.7778   
    2.242       0.5483E-3    0.7708       0.5640E-3    0.7779   
    2.262       0.5534E-3    0.7709       0.5692E-3    0.7780   
    2.282       0.5584E-3    0.7711       0.5744E-3    0.7781   
    2.302       0.5635E-3    0.7712       0.5796E-3    0.7783   
    2.322       0.5686E-3    0.7713       0.5849E-3    0.7784   
    2.342       0.5737E-3    0.7714       0.5901E-3    0.7785   
    2.362       0.5788E-3    0.7715       0.5954E-3    0.7786   
    2.382       0.5838E-3    0.7716       0.6006E-3    0.7787   
    2.402       0.5889E-3    0.7717       0.6058E-3    0.7789   
    2.422       0.5941E-3    0.7719       0.6111E-3    0.7790   
    2.442       0.5992E-3    0.7720       0.6164E-3    0.7791   
    2.462       0.6043E-3    0.7721       0.6216E-3    0.7792   
    2.482       0.6094E-3    0.7722       0.6269E-3    0.7793   
    2.503       0.6145E-3    0.7723       0.6322E-3    0.7795   
    2.523       0.6197E-3    0.7725       0.6375E-3    0.7796   
    2.543       0.6248E-3    0.7726       0.6428E-3    0.7797   
    2.563       0.6299E-3    0.7727       0.6480E-3    0.7799   
    2.583       0.6351E-3    0.7728       0.6533E-3    0.7800   
    2.603       0.6402E-3    0.7730       0.6587E-3    0.7801   
    2.623       0.6454E-3    0.7731       0.6640E-3    0.7803   
    2.643       0.6506E-3    0.7732       0.6693E-3    0.7804   
    2.663       0.6557E-3    0.7734       0.6746E-3    0.7805   
    2.683       0.6609E-3    0.7735       0.6799E-3    0.7807   
    2.703       0.6661E-3    0.7736       0.6853E-3    0.7808   
    2.723       0.6713E-3    0.7738       0.6906E-3    0.7809   
    2.743       0.6764E-3    0.7739       0.6959E-3    0.7811   
    2.763       0.6816E-3    0.7740       0.7013E-3    0.7812   
    2.783       0.6868E-3    0.7742       0.7067E-3    0.7813   
    2.803       0.6921E-3    0.7743       0.7120E-3    0.7815   
    2.823       0.6973E-3    0.7744       0.7174E-3    0.7816   
    2.843       0.7025E-3    0.7746       0.7228E-3    0.7818   
    2.863       0.7077E-3    0.7747       0.7282E-3    0.7819   
    2.883       0.7129E-3    0.7749       0.7335E-3    0.7821   
    2.903       0.7182E-3    0.7750       0.7389E-3    0.7822   
    2.923       0.7234E-3    0.7752       0.7443E-3    0.7824   
    2.943       0.7287E-3    0.7753       0.7497E-3    0.7825   
    2.963       0.7339E-3    0.7755       0.7552E-3    0.7827   
    2.983       0.7392E-3    0.7756       0.7606E-3    0.7828   
    3.003       0.7445E-3    0.7757       0.7660E-3    0.7830   
    3.023       0.7497E-3    0.7759       0.7715E-3    0.7831   
    3.043       0.7550E-3    0.7760       0.7769E-3    0.7833   
    3.063       0.7603E-3    0.7762       0.7823E-3    0.7834   
    3.083       0.7656E-3    0.7764       0.7878E-3    0.7836   
    3.103       0.7709E-3    0.7765       0.7933E-3    0.7838   
    3.123       0.7762E-3    0.7767       0.7987E-3    0.7839   
    3.143       0.7815E-3    0.7768       0.8042E-3    0.7841   
    3.163       0.7869E-3    0.7770       0.8097E-3    0.7842   
    3.183       0.7922E-3    0.7771       0.8152E-3    0.7844   
    3.203       0.7975E-3    0.7773       0.8207E-3    0.7846   
    3.223       0.8029E-3    0.7775       0.8262E-3    0.7847   
    3.243       0.8082E-3    0.7776       0.8317E-3    0.7849   
    3.263       0.8136E-3    0.7778       0.8372E-3    0.7851   
    3.283       0.8189E-3    0.7779       0.8427E-3    0.7852   
    3.303       0.8243E-3    0.7781       0.8483E-3    0.7854   
    3.323       0.8297E-3    0.7783       0.8538E-3    0.7856   
    3.343       0.8351E-3    0.7784       0.8594E-3    0.7857   
    3.363       0.8405E-3    0.7786       0.8649E-3    0.7859   
    3.383       0.8459E-3    0.7788       0.8705E-3    0.7861   
    3.403       0.8513E-3    0.7789       0.8761E-3    0.7863   
    3.423       0.8567E-3    0.7791       0.8817E-3    0.7864   
    3.443       0.8621E-3    0.7793       0.8872E-3    0.7866   
    3.463       0.8675E-3    0.7795       0.8928E-3    0.7868   
    3.483       0.8730E-3    0.7796       0.8984E-3    0.7870   
    3.504       0.8784E-3    0.7798       0.9041E-3    0.7871   
    3.524       0.8839E-3    0.7800       0.9097E-3    0.7873   
    3.544       0.8893E-3    0.7802       0.9153E-3    0.7875   
    3.564       0.8948E-3    0.7803       0.9209E-3    0.7877   
    3.584       0.9003E-3    0.7805       0.9266E-3    0.7879   
    3.604       0.9058E-3    0.7807       0.9322E-3    0.7881   
    3.624       0.9113E-3    0.7809       0.9379E-3    0.7883   
    3.644       0.9168E-3    0.7811       0.9436E-3    0.7884   
    3.664       0.9223E-3    0.7812       0.9493E-3    0.7886   
    3.684       0.9278E-3    0.7814       0.9549E-3    0.7888   
    3.704       0.9333E-3    0.7816       0.9606E-3    0.7890   
    3.724       0.9388E-3    0.7818       0.9664E-3    0.7892   
    3.744       0.9444E-3    0.7820       0.9721E-3    0.7894   
    3.764       0.9499E-3    0.7822       0.9778E-3    0.7896   
    3.784       0.9555E-3    0.7824       0.9835E-3    0.7898   
    3.804       0.9611E-3    0.7826       0.9893E-3    0.7900   
    3.824       0.9666E-3    0.7828       0.9950E-3    0.7902   
    3.844       0.9722E-3    0.7830       0.1001E-2    0.7904   
    3.864       0.9778E-3    0.7831       0.1007E-2    0.7906   
    3.884       0.9834E-3    0.7833       0.1012E-2    0.7908   
    3.904       0.9890E-3    0.7835       0.1018E-2    0.7910   
    3.924       0.9946E-3    0.7837       0.1024E-2    0.7912   
    3.944       0.1000E-2    0.7839       0.1030E-2    0.7914   
    3.964       0.1006E-2    0.7841       0.1036E-2    0.7916   
    3.984       0.1012E-2    0.7843       0.1041E-2    0.7918   
    4.004       0.1017E-2    0.7845       0.1047E-2    0.7920   
    4.024       0.1023E-2    0.7848       0.1053E-2    0.7922   
    4.044       0.1029E-2    0.7850       0.1059E-2    0.7924   
    4.064       0.1034E-2    0.7852       0.1065E-2    0.7927   
    4.084       0.1040E-2    0.7854       0.1071E-2    0.7929   
    4.104       0.1046E-2    0.7856       0.1076E-2    0.7931   
    4.124       0.1051E-2    0.7858       0.1082E-2    0.7933   
    4.144       0.1057E-2    0.7860       0.1088E-2    0.7935   
    4.164       0.1063E-2    0.7862       0.1094E-2    0.7937   
    4.184       0.1068E-2    0.7864       0.1100E-2    0.7940   
    4.204       0.1074E-2    0.7866       0.1106E-2    0.7942   
    4.224       0.1080E-2    0.7869       0.1112E-2    0.7944   
    4.244       0.1086E-2    0.7871       0.1118E-2    0.7946   
    4.264       0.1092E-2    0.7873       0.1124E-2    0.7949   
    4.284       0.1097E-2    0.7875       0.1130E-2    0.7951   
    4.304       0.1103E-2    0.7877       0.1136E-2    0.7953   
    4.324       0.1109E-2    0.7880       0.1142E-2    0.7955   
    4.344       0.1115E-2    0.7882       0.1148E-2    0.7958   
    4.364       0.1121E-2    0.7884       0.1154E-2    0.7960   
    4.384       0.1126E-2    0.7886       0.1160E-2    0.7962   
    4.404       0.1132E-2    0.7888       0.1166E-2    0.7965   
    4.424       0.1138E-2    0.7891       0.1172E-2    0.7967   
    4.444       0.1144E-2    0.7893       0.1178E-2    0.7969   
    4.464       0.1150E-2    0.7895       0.1184E-2    0.7972   
    4.484       0.1156E-2    0.7898       0.1190E-2    0.7974   
    4.505       0.1162E-2    0.7900       0.1196E-2    0.7976   
    4.525       0.1168E-2    0.7902       0.1202E-2    0.7979   
    4.545       0.1174E-2    0.7905       0.1209E-2    0.7981   
    4.565       0.1179E-2    0.7907       0.1215E-2    0.7984   
    4.585       0.1185E-2    0.7909       0.1221E-2    0.7986   
    4.605       0.1191E-2    0.7912       0.1227E-2    0.7989   
    4.625       0.1197E-2    0.7914       0.1233E-2    0.7991   
    4.645       0.1203E-2    0.7917       0.1239E-2    0.7993   
    4.665       0.1209E-2    0.7919       0.1245E-2    0.7996   
    4.685       0.1215E-2    0.7921       0.1252E-2    0.7998   
    4.705       0.1221E-2    0.7924       0.1258E-2    0.8001   
    4.725       0.1227E-2    0.7926       0.1264E-2    0.8003   
    4.745       0.1233E-2    0.7929       0.1270E-2    0.8006   
    4.765       0.1239E-2    0.7931       0.1277E-2    0.8009   
    4.785       0.1245E-2    0.7934       0.1283E-2    0.8011   
    4.805       0.1251E-2    0.7936       0.1289E-2    0.8014   
    4.825       0.1258E-2    0.7939       0.1295E-2    0.8016   
    4.845       0.1264E-2    0.7941       0.1302E-2    0.8019   
    4.865       0.1270E-2    0.7944       0.1308E-2    0.8021   
    4.885       0.1276E-2    0.7946       0.1314E-2    0.8024   
    4.905       0.1282E-2    0.7949       0.1321E-2    0.8027   
    4.925       0.1288E-2    0.7951       0.1327E-2    0.8029   
    4.945       0.1294E-2    0.7954       0.1333E-2    0.8032   
    4.965       0.1300E-2    0.7957       0.1340E-2    0.8035   
    4.985       0.1307E-2    0.7959       0.1346E-2    0.8037   
    5.005       0.1313E-2    0.7962       0.1352E-2    0.8040   
    5.025       0.1319E-2    0.7964       0.1359E-2    0.8043   
    5.045       0.1325E-2    0.7967       0.1365E-2    0.8046   
    5.065       0.1331E-2    0.7970       0.1372E-2    0.8048   
    5.085       0.1338E-2    0.7972       0.1378E-2    0.8051   
    5.105       0.1344E-2    0.7975       0.1385E-2    0.8054   
    5.125       0.1350E-2    0.7978       0.1391E-2    0.8057   
    5.145       0.1356E-2    0.7981       0.1398E-2    0.8059   
    5.165       0.1363E-2    0.7983       0.1404E-2    0.8062   
    5.185       0.1369E-2    0.7986       0.1411E-2    0.8065   
    5.205       0.1375E-2    0.7989       0.1417E-2    0.8068   
    5.225       0.1382E-2    0.7992       0.1424E-2    0.8071   
    5.245       0.1388E-2    0.7994       0.1430E-2    0.8074   
    5.265       0.1394E-2    0.7997       0.1437E-2    0.8076   
    5.285       0.1401E-2    0.8000       0.1443E-2    0.8079   
    5.305       0.1407E-2    0.8003       0.1450E-2    0.8082   
    5.325       0.1414E-2    0.8006       0.1457E-2    0.8085   
    5.345       0.1420E-2    0.8008       0.1463E-2    0.8088   
    5.365       0.1426E-2    0.8011       0.1470E-2    0.8091   
    5.385       0.1433E-2    0.8014       0.1477E-2    0.8094   
    5.405       0.1439E-2    0.8017       0.1483E-2    0.8097   
    5.425       0.1446E-2    0.8020       0.1490E-2    0.8100   
    5.445       0.1452E-2    0.8023       0.1497E-2    0.8103   
    5.465       0.1459E-2    0.8026       0.1503E-2    0.8106   
    5.485       0.1465E-2    0.8029       0.1510E-2    0.8109   
    5.506       0.1472E-2    0.8032       0.1517E-2    0.8112   
    5.526       0.1478E-2    0.8034       0.1524E-2    0.8115   
    5.546       0.1485E-2    0.8037       0.1530E-2    0.8118   
    5.566       0.1491E-2    0.8040       0.1537E-2    0.8121   
    5.586       0.1498E-2    0.8043       0.1544E-2    0.8124   
    5.606       0.1505E-2    0.8046       0.1551E-2    0.8127   
    5.626       0.1511E-2    0.8049       0.1558E-2    0.8130   
    5.646       0.1518E-2    0.8052       0.1564E-2    0.8133   
    5.666       0.1524E-2    0.8055       0.1571E-2    0.8137   
    5.686       0.1531E-2    0.8059       0.1578E-2    0.8140   
    5.706       0.1538E-2    0.8062       0.1585E-2    0.8143   
    5.726       0.1544E-2    0.8065       0.1592E-2    0.8146   
    5.746       0.1551E-2    0.8068       0.1599E-2    0.8149   
    5.766       0.1558E-2    0.8071       0.1606E-2    0.8153   
    5.786       0.1565E-2    0.8074       0.1613E-2    0.8156   
    5.806       0.1571E-2    0.8077       0.1620E-2    0.8159   
    5.826       0.1578E-2    0.8080       0.1627E-2    0.8162   
    5.846       0.1585E-2    0.8084       0.1634E-2    0.8165   
    5.866       0.1592E-2    0.8087       0.1641E-2    0.8169   
    5.886       0.1598E-2    0.8090       0.1648E-2    0.8172   
    5.906       0.1605E-2    0.8093       0.1655E-2    0.8175   
    5.926       0.1612E-2    0.8096       0.1662E-2    0.8179   
    5.946       0.1619E-2    0.8100       0.1669E-2    0.8182   
    5.966       0.1626E-2    0.8103       0.1676E-2    0.8185   
    5.986       0.1633E-2    0.8106       0.1683E-2    0.8189   
    6.006       0.1640E-2    0.8109       0.1691E-2    0.8192   
    6.026       0.1647E-2    0.8113       0.1698E-2    0.8196   
    6.046       0.1653E-2    0.8116       0.1705E-2    0.8199   
    6.066       0.1660E-2    0.8119       0.1712E-2    0.8202   
    6.086       0.1667E-2    0.8123       0.1719E-2    0.8206   
    6.106       0.1674E-2    0.8126       0.1727E-2    0.8209   
    6.126       0.1681E-2    0.8129       0.1734E-2    0.8213   
    6.146       0.1688E-2    0.8133       0.1741E-2    0.8216   
    6.166       0.1695E-2    0.8136       0.1748E-2    0.8220   
    6.186       0.1703E-2    0.8139       0.1756E-2    0.8223   
    6.206       0.1710E-2    0.8143       0.1763E-2    0.8227   
    6.226       0.1717E-2    0.8146       0.1770E-2    0.8230   
    6.246       0.1724E-2    0.8150       0.1778E-2    0.8234   
    6.266       0.1731E-2    0.8153       0.1785E-2    0.8237   
    6.286       0.1738E-2    0.8157       0.1793E-2    0.8241   
    6.306       0.1745E-2    0.8160       0.1800E-2    0.8245   
    6.326       0.1752E-2    0.8164       0.1808E-2    0.8248   
    6.346       0.1760E-2    0.8167       0.1815E-2    0.8252   
    6.366       0.1767E-2    0.8171       0.1822E-2    0.8255   
    6.386       0.1774E-2    0.8174       0.1830E-2    0.8259   
    6.406       0.1781E-2    0.8178       0.1838E-2    0.8263   
    6.426       0.1789E-2    0.8181       0.1845E-2    0.8266   
    6.446       0.1796E-2    0.8185       0.1853E-2    0.8270   
    6.466       0.1803E-2    0.8189       0.1860E-2    0.8274   
    6.486       0.1811E-2    0.8192       0.1868E-2    0.8278   
    6.507       0.1818E-2    0.8196       0.1875E-2    0.8281   
    6.527       0.1825E-2    0.8199       0.1883E-2    0.8285   
    6.547       0.1833E-2    0.8203       0.1891E-2    0.8289   
    6.567       0.1840E-2    0.8207       0.1898E-2    0.8293   
    6.587       0.1847E-2    0.8210       0.1906E-2    0.8296   
    6.607       0.1855E-2    0.8214       0.1914E-2    0.8300   
    6.627       0.1862E-2    0.8218       0.1922E-2    0.8304   
    6.647       0.1870E-2    0.8222       0.1929E-2    0.8308   
    6.667       0.1877E-2    0.8225       0.1937E-2    0.8312   
    6.687       0.1885E-2    0.8229       0.1945E-2    0.8316   
    6.707       0.1892E-2    0.8233       0.1953E-2    0.8320   
    6.727       0.1900E-2    0.8237       0.1961E-2    0.8324   
    6.747       0.1908E-2    0.8241       0.1969E-2    0.8327   
    6.767       0.1915E-2    0.8244       0.1976E-2    0.8331   
    6.787       0.1923E-2    0.8248       0.1984E-2    0.8335   
    6.807       0.1930E-2    0.8252       0.1992E-2    0.8339   
    6.827       0.1938E-2    0.8256       0.2000E-2    0.8343   
    6.847       0.1946E-2    0.8260       0.2008E-2    0.8347   
    6.867       0.1954E-2    0.8264       0.2016E-2    0.8351   
    6.887       0.1961E-2    0.8268       0.2024E-2    0.8355   
    6.907       0.1969E-2    0.8272       0.2032E-2    0.8359   
    6.927       0.1977E-2    0.8276       0.2040E-2    0.8364   
    6.947       0.1985E-2    0.8279       0.2048E-2    0.8368   
    6.967       0.1992E-2    0.8283       0.2057E-2    0.8372   
    6.987       0.2000E-2    0.8287       0.2065E-2    0.8376   
    7.007       0.2008E-2    0.8291       0.2073E-2    0.8380   
    7.027       0.2016E-2    0.8296       0.2081E-2    0.8384   
    7.047       0.2024E-2    0.8300       0.2089E-2    0.8388   
    7.067       0.2032E-2    0.8304       0.2098E-2    0.8393   
    7.087       0.2040E-2    0.8308       0.2106E-2    0.8397   
    7.107       0.2048E-2    0.8312       0.2114E-2    0.8401   
    7.127       0.2056E-2    0.8316       0.2122E-2    0.8405   
    7.147       0.2064E-2    0.8320       0.2131E-2    0.8409   
    7.167       0.2072E-2    0.8324       0.2139E-2    0.8414   
    7.187       0.2080E-2    0.8328       0.2147E-2    0.8418   
    7.207       0.2088E-2    0.8332       0.2156E-2    0.8422   
    7.227       0.2096E-2    0.8337       0.2164E-2    0.8427   
    7.247       0.2104E-2    0.8341       0.2173E-2    0.8431   
    7.267       0.2112E-2    0.8345       0.2181E-2    0.8435   
    7.287       0.2121E-2    0.8349       0.2190E-2    0.8440   
    7.307       0.2129E-2    0.8354       0.2198E-2    0.8444   
    7.327       0.2137E-2    0.8358       0.2207E-2    0.8449   
    7.347       0.2145E-2    0.8362       0.2215E-2    0.8453   
    7.367       0.2153E-2    0.8366       0.2224E-2    0.8457   
    7.387       0.2162E-2    0.8371       0.2233E-2    0.8462   
    7.407       0.2170E-2    0.8375       0.2241E-2    0.8466   
    7.427       0.2178E-2    0.8379       0.2250E-2    0.8471   
    7.447       0.2187E-2    0.8384       0.2259E-2    0.8475   
    7.467       0.2195E-2    0.8388       0.2267E-2    0.8480   
    7.487       0.2204E-2    0.8393       0.2276E-2    0.8484   
    7.508       0.2212E-2    0.8397       0.2285E-2    0.8489   
    7.528       0.2221E-2    0.8401       0.2294E-2    0.8494   
    7.548       0.2229E-2    0.8406       0.2303E-2    0.8498   
    7.568       0.2238E-2    0.8410       0.2311E-2    0.8503   
    7.588       0.2246E-2    0.8415       0.2320E-2    0.8507   
    7.608       0.2255E-2    0.8419       0.2329E-2    0.8512   
    7.628       0.2263E-2    0.8424       0.2338E-2    0.8517   
    7.648       0.2272E-2    0.8428       0.2347E-2    0.8521   
    7.668       0.2281E-2    0.8433       0.2356E-2    0.8526   
    7.688       0.2289E-2    0.8438       0.2365E-2    0.8531   
    7.708       0.2298E-2    0.8442       0.2374E-2    0.8536   
    7.728       0.2307E-2    0.8447       0.2383E-2    0.8540   
    7.748       0.2315E-2    0.8451       0.2393E-2    0.8545   
    7.768       0.2324E-2    0.8456       0.2402E-2    0.8550   
    7.788       0.2333E-2    0.8461       0.2411E-2    0.8555   
    7.808       0.2342E-2    0.8465       0.2420E-2    0.8560   
    7.828       0.2351E-2    0.8470       0.2429E-2    0.8564   
    7.848       0.2360E-2    0.8475       0.2439E-2    0.8569   
    7.868       0.2369E-2    0.8480       0.2448E-2    0.8574   
    7.888       0.2378E-2    0.8484       0.2457E-2    0.8579   
    7.908       0.2387E-2    0.8489       0.2467E-2    0.8584   
    7.928       0.2396E-2    0.8494       0.2476E-2    0.8589   
    7.948       0.2405E-2    0.8499       0.2485E-2    0.8594   
    7.968       0.2414E-2    0.8503       0.2495E-2    0.8599   
    7.988       0.2423E-2    0.8508       0.2504E-2    0.8604   
    8.008       0.2432E-2    0.8513       0.2514E-2    0.8609   
    8.028       0.2441E-2    0.8518       0.2523E-2    0.8614   
    8.048       0.2450E-2    0.8523       0.2533E-2    0.8619   
    8.068       0.2459E-2    0.8528       0.2543E-2    0.8624   
    8.088       0.2469E-2    0.8533       0.2552E-2    0.8629   
    8.108       0.2478E-2    0.8538       0.2562E-2    0.8634   
    8.128       0.2487E-2    0.8543       0.2572E-2    0.8640   
    8.148       0.2497E-2    0.8548       0.2581E-2    0.8645   
    8.168       0.2506E-2    0.8553       0.2591E-2    0.8650   
    8.188       0.2515E-2    0.8558       0.2601E-2    0.8655   
    8.208       0.2525E-2    0.8563       0.2611E-2    0.8660   
    8.228       0.2534E-2    0.8568       0.2621E-2    0.8666   
    8.248       0.2544E-2    0.8573       0.2631E-2    0.8671   
    8.268       0.2553E-2    0.8578       0.2640E-2    0.8676   
    8.288       0.2563E-2    0.8583       0.2650E-2    0.8681   
    8.308       0.2572E-2    0.8588       0.2660E-2    0.8687   
    8.328       0.2582E-2    0.8593       0.2670E-2    0.8692   
    8.348       0.2592E-2    0.8599       0.2681E-2    0.8697   
    8.368       0.2601E-2    0.8604       0.2691E-2    0.8703   
    8.388       0.2611E-2    0.8609       0.2701E-2    0.8708   
    8.408       0.2621E-2    0.8614       0.2711E-2    0.8714   
    8.428       0.2631E-2    0.8620       0.2721E-2    0.8719   
    8.448       0.2640E-2    0.8625       0.2731E-2    0.8724   
    8.468       0.2650E-2    0.8630       0.2742E-2    0.8730   
    8.488       0.2660E-2    0.8635       0.2752E-2    0.8735   
    8.509       0.2670E-2    0.8641       0.2762E-2    0.8741   
    8.529       0.2680E-2    0.8646       0.2773E-2    0.8746   
    8.549       0.2690E-2    0.8651       0.2783E-2    0.8752   
    8.569       0.2700E-2    0.8657       0.2794E-2    0.8758   
    8.589       0.2710E-2    0.8662       0.2804E-2    0.8763   
    8.609       0.2720E-2    0.8668       0.2815E-2    0.8769   
    8.629       0.2730E-2    0.8673       0.2825E-2    0.8775   
    8.649       0.2740E-2    0.8679       0.2836E-2    0.8780   
    8.669       0.2751E-2    0.8684       0.2847E-2    0.8786   
    8.689       0.2761E-2    0.8690       0.2857E-2    0.8792   
    8.709       0.2771E-2    0.8695       0.2868E-2    0.8797   
    8.729       0.2781E-2    0.8701       0.2879E-2    0.8803   
    8.749       0.2792E-2    0.8706       0.2889E-2    0.8809   
    8.769       0.2802E-2    0.8712       0.2900E-2    0.8815   
    8.789       0.2813E-2    0.8718       0.2911E-2    0.8820   
    8.809       0.2823E-2    0.8723       0.2922E-2    0.8826   
    8.829       0.2834E-2    0.8729       0.2933E-2    0.8832   
    8.849       0.2844E-2    0.8735       0.2944E-2    0.8838   
    8.869       0.2855E-2    0.8740       0.2955E-2    0.8844   
    8.889       0.2865E-2    0.8746       0.2966E-2    0.8850   
    8.909       0.2876E-2    0.8752       0.2977E-2    0.8856   
    8.929       0.2887E-2    0.8757       0.2989E-2    0.8862   
    8.949       0.2897E-2    0.8763       0.3000E-2    0.8868   
    8.969       0.2908E-2    0.8769       0.3011E-2    0.8874   
    8.989       0.2919E-2    0.8775       0.3022E-2    0.8880   
    9.009       0.2930E-2    0.8781       0.3034E-2    0.8886   
    9.029       0.2940E-2    0.8787       0.3045E-2    0.8892   
    9.049       0.2951E-2    0.8793       0.3056E-2    0.8898   
    9.069       0.2962E-2    0.8798       0.3068E-2    0.8904   
    9.089       0.2973E-2    0.8804       0.3079E-2    0.8910   
    9.109       0.2984E-2    0.8810       0.3091E-2    0.8917   
    9.129       0.2995E-2    0.8816       0.3102E-2    0.8923   
    9.149       0.3006E-2    0.8822       0.3114E-2    0.8929   
    9.169       0.3018E-2    0.8828       0.3126E-2    0.8935   
    9.189       0.3029E-2    0.8834       0.3137E-2    0.8941   
    9.209       0.3040E-2    0.8840       0.3149E-2    0.8948   
    9.229       0.3051E-2    0.8847       0.3161E-2    0.8954   
    9.249       0.3063E-2    0.8853       0.3173E-2    0.8960   
    9.269       0.3074E-2    0.8859       0.3185E-2    0.8967   
    9.289       0.3085E-2    0.8865       0.3197E-2    0.8973   
    9.309       0.3097E-2    0.8871       0.3209E-2    0.8980   
    9.329       0.3108E-2    0.8877       0.3221E-2    0.8986   
    9.349       0.3120E-2    0.8884       0.3233E-2    0.8992   
    9.369       0.3131E-2    0.8890       0.3245E-2    0.8999   
    9.389       0.3143E-2    0.8896       0.3257E-2    0.9005   
    9.409       0.3155E-2    0.8902       0.3269E-2    0.9012   
    9.429       0.3166E-2    0.8909       0.3282E-2    0.9019   
    9.449       0.3178E-2    0.8915       0.3294E-2    0.9025   
    9.469       0.3190E-2    0.8922       0.3306E-2    0.9032   
    9.489       0.3202E-2    0.8928       0.3319E-2    0.9038   
    9.510       0.3214E-2    0.8934       0.3331E-2    0.9045   
    9.530       0.3226E-2    0.8941       0.3344E-2    0.9052   
    9.550       0.3238E-2    0.8947       0.3356E-2    0.9058   
    9.570       0.3250E-2    0.8954       0.3369E-2    0.9065   
    9.590       0.3262E-2    0.8960       0.3382E-2    0.9072   
    9.610       0.3274E-2    0.8967       0.3394E-2    0.9079   
    9.630       0.3286E-2    0.8973       0.3407E-2    0.9085   
    9.650       0.3298E-2    0.8980       0.3420E-2    0.9092   
    9.670       0.3311E-2    0.8987       0.3433E-2    0.9099   
    9.690       0.3323E-2    0.8993       0.3446E-2    0.9106   
    9.710       0.3335E-2    0.9000       0.3459E-2    0.9113   
    9.730       0.3348E-2    0.9007       0.3472E-2    0.9120   
    9.750       0.3360E-2    0.9013       0.3485E-2    0.9127   
    9.770       0.3373E-2    0.9020       0.3498E-2    0.9134   
    9.790       0.3385E-2    0.9027       0.3511E-2    0.9141   
    9.810       0.3398E-2    0.9034       0.3524E-2    0.9148   
    9.830       0.3411E-2    0.9040       0.3538E-2    0.9155   
    9.850       0.3423E-2    0.9047       0.3551E-2    0.9162   
    9.870       0.3436E-2    0.9054       0.3565E-2    0.9169   
    9.890       0.3449E-2    0.9061       0.3578E-2    0.9176   
    9.910       0.3462E-2    0.9068       0.3592E-2    0.9184   
    9.930       0.3475E-2    0.9075       0.3605E-2    0.9191   
    9.950       0.3488E-2    0.9082       0.3619E-2    0.9198   
    9.970       0.3501E-2    0.9089       0.3632E-2    0.9205   
    9.990       0.3514E-2    0.9096       0.3646E-2    0.9213   
    10.01       0.3527E-2    0.9103       0.3660E-2    0.9220   
    10.03       0.3540E-2    0.9110       0.3674E-2    0.9227   
    10.05       0.3553E-2    0.9117       0.3688E-2    0.9235   
    10.07       0.3567E-2    0.9124       0.3702E-2    0.9242   
    10.09       0.3580E-2    0.9131       0.3716E-2    0.9249   
    10.11       0.3593E-2    0.9139       0.3730E-2    0.9257   
    10.13       0.3607E-2    0.9146       0.3744E-2    0.9264   
    10.15       0.3620E-2    0.9153       0.3758E-2    0.9272   
    10.17       0.3634E-2    0.9160       0.3773E-2    0.9279   
    10.19       0.3648E-2    0.9168       0.3787E-2    0.9287   
    10.21       0.3661E-2    0.9175       0.3801E-2    0.9294   
    10.23       0.3675E-2    0.9182       0.3816E-2    0.9302   
    10.25       0.3689E-2    0.9190       0.3831E-2    0.9310   
    10.27       0.3703E-2    0.9197       0.3845E-2    0.9317   
    10.29       0.3717E-2    0.9204       0.3860E-2    0.9325   
    10.31       0.3731E-2    0.9212       0.3875E-2    0.9333   
    10.33       0.3745E-2    0.9219       0.3889E-2    0.9341   
    10.35       0.3759E-2    0.9227       0.3904E-2    0.9348   
    10.37       0.3773E-2    0.9234       0.3919E-2    0.9356   
    10.39       0.3787E-2    0.9242       0.3934E-2    0.9364   
    10.41       0.3802E-2    0.9250       0.3949E-2    0.9372   
    10.43       0.3816E-2    0.9257       0.3964E-2    0.9380   
    10.45       0.3830E-2    0.9265       0.3980E-2    0.9388   
    10.47       0.3845E-2    0.9272       0.3995E-2    0.9396   
    10.49       0.3859E-2    0.9280       0.4010E-2    0.9404   
    10.51       0.3874E-2    0.9288       0.4026E-2    0.9412   
    10.53       0.3889E-2    0.9296       0.4041E-2    0.9420   
    10.55       0.3904E-2    0.9304       0.4057E-2    0.9428   
    10.57       0.3918E-2    0.9311       0.4072E-2    0.9436   
    10.59       0.3933E-2    0.9319       0.4088E-2    0.9444   
    10.61       0.3948E-2    0.9327       0.4104E-2    0.9453   
    10.63       0.3963E-2    0.9335       0.4119E-2    0.9461   
    10.65       0.3978E-2    0.9343       0.4135E-2    0.9469   
    10.67       0.3993E-2    0.9351       0.4151E-2    0.9477   
    10.69       0.4009E-2    0.9359       0.4167E-2    0.9486   
    10.71       0.4024E-2    0.9367       0.4183E-2    0.9494   
    10.73       0.4039E-2    0.9375       0.4200E-2    0.9502   
    10.75       0.4055E-2    0.9383       0.4216E-2    0.9511   
    10.77       0.4070E-2    0.9391       0.4232E-2    0.9519   
    10.79       0.4086E-2    0.9399       0.4249E-2    0.9528   
    10.81       0.4101E-2    0.9408       0.4265E-2    0.9536   
    10.83       0.4117E-2    0.9416       0.4282E-2    0.9545   
    10.85       0.4133E-2    0.9424       0.4298E-2    0.9554   
    10.87       0.4149E-2    0.9432       0.4315E-2    0.9562   
    10.89       0.4164E-2    0.9441       0.4332E-2    0.9571   
    10.91       0.4180E-2    0.9449       0.4349E-2    0.9579   
    10.93       0.4197E-2    0.9457       0.4366E-2    0.9588   
    10.95       0.4213E-2    0.9466       0.4383E-2    0.9597   
    10.97       0.4229E-2    0.9474       0.4400E-2    0.9606   
    10.99       0.4245E-2    0.9483       0.4417E-2    0.9615   
    11.01       0.4262E-2    0.9491       0.4435E-2    0.9623   
    11.03       0.4278E-2    0.9500       0.4452E-2    0.9632   
    11.05       0.4294E-2    0.9508       0.4469E-2    0.9641   
    11.07       0.4311E-2    0.9517       0.4487E-2    0.9650   
    11.09       0.4328E-2    0.9526       0.4505E-2    0.9659   
    11.11       0.4345E-2    0.9534       0.4522E-2    0.9668   
    11.13       0.4361E-2    0.9543       0.4540E-2    0.9677   
    11.15       0.4378E-2    0.9552       0.4558E-2    0.9686   
    11.17       0.4395E-2    0.9561       0.4576E-2    0.9696   
    11.19       0.4412E-2    0.9569       0.4594E-2    0.9705   
    11.21       0.4429E-2    0.9578       0.4612E-2    0.9714   
    11.23       0.4447E-2    0.9587       0.4631E-2    0.9723   
    11.25       0.4464E-2    0.9596       0.4649E-2    0.9733   
    11.27       0.4481E-2    0.9605       0.4667E-2    0.9742   
    11.29       0.4499E-2    0.9614       0.4686E-2    0.9751   
    11.31       0.4516E-2    0.9623       0.4704E-2    0.9761   
    11.33       0.4534E-2    0.9632       0.4723E-2    0.9770   
    11.35       0.4552E-2    0.9641       0.4742E-2    0.9779   
    11.37       0.4570E-2    0.9650       0.4761E-2    0.9789   
    11.39       0.4588E-2    0.9659       0.4780E-2    0.9799   
    11.41       0.4606E-2    0.9669       0.4799E-2    0.9808   
    11.43       0.4624E-2    0.9678       0.4818E-2    0.9818   
    11.45       0.4642E-2    0.9687       0.4837E-2    0.9827   
    11.47       0.4660E-2    0.9697       0.4857E-2    0.9837   
    11.49       0.4679E-2    0.9706       0.4876E-2    0.9847   
    11.51       0.4697E-2    0.9715       0.4896E-2    0.9857   
    11.53       0.4716E-2    0.9725       0.4916E-2    0.9866   
    11.55       0.4734E-2    0.9734       0.4935E-2    0.9876   
    11.57       0.4753E-2    0.9744       0.4955E-2    0.9886   
    11.59       0.4772E-2    0.9753       0.4975E-2    0.9896   
    11.61       0.4791E-2    0.9763       0.4995E-2    0.9906   
    11.63       0.4810E-2    0.9772       0.5015E-2    0.9916   
    11.65       0.4829E-2    0.9782       0.5036E-2    0.9926   
    11.67       0.4848E-2    0.9792       0.5056E-2    0.9936   
    11.69       0.4867E-2    0.9801       0.5077E-2    0.9946   
    11.71       0.4887E-2    0.9811       0.5097E-2    0.9957   
    11.73       0.4906E-2    0.9821       0.5118E-2    0.9967   
    11.75       0.4926E-2    0.9831       0.5139E-2    0.9977   
    11.77       0.4946E-2    0.9841       0.5160E-2    0.9987   
    11.79       0.4965E-2    0.9851       0.5181E-2    0.9998   
    11.81       0.4985E-2    0.9861       0.5202E-2     1.001   
    11.83       0.5005E-2    0.9871       0.5223E-2     1.002   
    11.85       0.5026E-2    0.9881       0.5245E-2     1.003   
    11.87       0.5046E-2    0.9891       0.5266E-2     1.004   
    11.89       0.5066E-2    0.9901       0.5288E-2     1.005   
    11.91       0.5087E-2    0.9911       0.5310E-2     1.006   
    11.93       0.5107E-2    0.9921       0.5332E-2     1.007   
    11.95       0.5128E-2    0.9931       0.5354E-2     1.008   
    11.97       0.5149E-2    0.9942       0.5376E-2     1.009   
    11.99       0.5169E-2    0.9952       0.5398E-2     1.010   
    12.01       0.5190E-2    0.9962       0.5420E-2     1.011   
    12.03       0.5211E-2    0.9973       0.5443E-2     1.013   
    12.05       0.5233E-2    0.9983       0.5465E-2     1.014   
    12.07       0.5254E-2    0.9994       0.5488E-2     1.015   
    12.09       0.5275E-2     1.000       0.5511E-2     1.016   
    12.11       0.5297E-2     1.001       0.5534E-2     1.017   
    12.13       0.5319E-2     1.003       0.5557E-2     1.018   
    12.15       0.5341E-2     1.004       0.5580E-2     1.019   
    12.17       0.5362E-2     1.005       0.5604E-2     1.020   
    12.19       0.5384E-2     1.006       0.5627E-2     1.021   
    12.21       0.5407E-2     1.007       0.5651E-2     1.023   
    12.23       0.5429E-2     1.008       0.5675E-2     1.024   
    12.25       0.5451E-2     1.009       0.5699E-2     1.025   
    12.27       0.5474E-2     1.010       0.5723E-2     1.026   
    12.29       0.5496E-2     1.011       0.5747E-2     1.027   
    12.31       0.5519E-2     1.012       0.5771E-2     1.028   
    12.33       0.5542E-2     1.013       0.5796E-2     1.029   
    12.35       0.5565E-2     1.015       0.5820E-2     1.031   
    12.37       0.5588E-2     1.016       0.5845E-2     1.032   
    12.39       0.5612E-2     1.017       0.5870E-2     1.033   
    12.41       0.5635E-2     1.018       0.5895E-2     1.034   
    12.43       0.5659E-2     1.019       0.5920E-2     1.035   
    12.45       0.5682E-2     1.020       0.5945E-2     1.036   
    12.47       0.5706E-2     1.021       0.5971E-2     1.038   
    12.49       0.5730E-2     1.022       0.5996E-2     1.039   
    12.51       0.5754E-2     1.024       0.6022E-2     1.040   
    12.53       0.5778E-2     1.025       0.6048E-2     1.041   
    12.55       0.5803E-2     1.026       0.6074E-2     1.042   
    12.57       0.5827E-2     1.027       0.6101E-2     1.044   
    12.59       0.5852E-2     1.028       0.6127E-2     1.045   
    12.61       0.5877E-2     1.029       0.6153E-2     1.046   
    12.63       0.5902E-2     1.031       0.6180E-2     1.047   
    12.65       0.5927E-2     1.032       0.6207E-2     1.049   
    12.67       0.5952E-2     1.033       0.6234E-2     1.050   
    12.69       0.5977E-2     1.034       0.6261E-2     1.051   
    12.71       0.6003E-2     1.035       0.6289E-2     1.052   
    12.73       0.6029E-2     1.037       0.6316E-2     1.054   
    12.75       0.6054E-2     1.038       0.6344E-2     1.055   
    12.77       0.6080E-2     1.039       0.6372E-2     1.056   
    12.79       0.6107E-2     1.040       0.6400E-2     1.057   
    12.81       0.6133E-2     1.041       0.6428E-2     1.059   
    12.83       0.6159E-2     1.043       0.6456E-2     1.060   
    12.85       0.6186E-2     1.044       0.6485E-2     1.061   
    12.87       0.6213E-2     1.045       0.6514E-2     1.063   
    12.89       0.6240E-2     1.046       0.6543E-2     1.064   
    12.91       0.6267E-2     1.048       0.6572E-2     1.065   
    12.93       0.6294E-2     1.049       0.6601E-2     1.067   
    12.95       0.6321E-2     1.050       0.6631E-2     1.068   
    12.97       0.6349E-2     1.051       0.6660E-2     1.069   
    12.99       0.6377E-2     1.053       0.6690E-2     1.071   
    13.01       0.6405E-2     1.054       0.6720E-2     1.072   
    13.03       0.6433E-2     1.055       0.6750E-2     1.073   
    13.05       0.6461E-2     1.057       0.6781E-2     1.075   
    13.07       0.6490E-2     1.058       0.6811E-2     1.076   
    13.09       0.6518E-2     1.059       0.6842E-2     1.077   
    13.11       0.6547E-2     1.060       0.6873E-2     1.079   
    13.13       0.6576E-2     1.062       0.6905E-2     1.080   
    13.15       0.6605E-2     1.063       0.6936E-2     1.081   
    13.17       0.6635E-2     1.064       0.6968E-2     1.083   
    13.19       0.6664E-2     1.066       0.7000E-2     1.084   
    13.21       0.6694E-2     1.067       0.7032E-2     1.086   
    13.23       0.6724E-2     1.068       0.7064E-2     1.087   
    13.25       0.6754E-2     1.070       0.7096E-2     1.088   
    13.27       0.6784E-2     1.071       0.7129E-2     1.090   
    13.29       0.6815E-2     1.072       0.7162E-2     1.091   
    13.31       0.6845E-2     1.074       0.7195E-2     1.093   
    13.33       0.6876E-2     1.075       0.7228E-2     1.094   
    13.35       0.6907E-2     1.077       0.7262E-2     1.096   
    13.37       0.6939E-2     1.078       0.7296E-2     1.097   
    13.39       0.6970E-2     1.079       0.7330E-2     1.099   
    13.41       0.7002E-2     1.081       0.7364E-2     1.100   
    13.43       0.7034E-2     1.082       0.7399E-2     1.102   
    13.45       0.7066E-2     1.084       0.7434E-2     1.103   
    13.47       0.7098E-2     1.085       0.7469E-2     1.104   
    13.49       0.7131E-2     1.086       0.7504E-2     1.106   
    13.51       0.7164E-2     1.088       0.7539E-2     1.107   
    13.53       0.7197E-2     1.089       0.7575E-2     1.109   
    13.55       0.7230E-2     1.091       0.7611E-2     1.111   
    13.57       0.7263E-2     1.092       0.7647E-2     1.112   
    13.59       0.7297E-2     1.094       0.7684E-2     1.114   
    13.61       0.7331E-2     1.095       0.7720E-2     1.115   
    13.63       0.7365E-2     1.097       0.7757E-2     1.117   
    13.65       0.7400E-2     1.098       0.7795E-2     1.118   
    13.67       0.7434E-2     1.100       0.7832E-2     1.120   
    13.69       0.7469E-2     1.101       0.7870E-2     1.121   
    13.71       0.7504E-2     1.103       0.7908E-2     1.123   
    13.73       0.7539E-2     1.104       0.7946E-2     1.125   
    13.75       0.7575E-2     1.106       0.7985E-2     1.126   
    13.77       0.7611E-2     1.107       0.8024E-2     1.128   
    13.79       0.7647E-2     1.109       0.8063E-2     1.129   
    13.81       0.7683E-2     1.110       0.8103E-2     1.131   
    13.83       0.7720E-2     1.112       0.8142E-2     1.133   
    13.85       0.7757E-2     1.113       0.8183E-2     1.134   
    13.87       0.7794E-2     1.115       0.8223E-2     1.136   
    13.89       0.7831E-2     1.116       0.8264E-2     1.138   
    13.91       0.7869E-2     1.118       0.8305E-2     1.139   
    13.93       0.7907E-2     1.119       0.8346E-2     1.141   
    13.95       0.7945E-2     1.121       0.8387E-2     1.143   
    13.97       0.7983E-2     1.123       0.8429E-2     1.144   
    13.99       0.8022E-2     1.124       0.8472E-2     1.146   
    14.01       0.8061E-2     1.126       0.8514E-2     1.148   
    14.03       0.8100E-2     1.128       0.8557E-2     1.149   
    14.05       0.8140E-2     1.129       0.8600E-2     1.151   
    14.07       0.8180E-2     1.131       0.8644E-2     1.153   
    14.09       0.8220E-2     1.132       0.8688E-2     1.154   
    14.11       0.8260E-2     1.134       0.8732E-2     1.156   
    14.13       0.8301E-2     1.136       0.8776E-2     1.158   
    14.15       0.8342E-2     1.137       0.8821E-2     1.160   
    14.17       0.8384E-2     1.139       0.8866E-2     1.161   
    14.19       0.8425E-2     1.141       0.8912E-2     1.163   
    14.21       0.8467E-2     1.142       0.8958E-2     1.165   
    14.23       0.8510E-2     1.144       0.9004E-2     1.167   
    14.25       0.8552E-2     1.146       0.9051E-2     1.169   
    14.27       0.8595E-2     1.148       0.9098E-2     1.170   
    14.29       0.8639E-2     1.149       0.9146E-2     1.172   
    14.31       0.8682E-2     1.151       0.9194E-2     1.174   
    14.33       0.8726E-2     1.153       0.9242E-2     1.176   
    14.35       0.8771E-2     1.154       0.9290E-2     1.178   
    14.37       0.8815E-2     1.156       0.9339E-2     1.180   
    14.39       0.8860E-2     1.158       0.9389E-2     1.182   
    14.41       0.8906E-2     1.160       0.9439E-2     1.183   
    14.43       0.8951E-2     1.162       0.9489E-2     1.185   
    14.45       0.8998E-2     1.163       0.9540E-2     1.187   
    14.47       0.9044E-2     1.165       0.9591E-2     1.189   
    14.49       0.9091E-2     1.167       0.9642E-2     1.191   
    14.51       0.9138E-2     1.169       0.9694E-2     1.193   
    14.53       0.9186E-2     1.171       0.9747E-2     1.195   
    14.55       0.9234E-2     1.173       0.9799E-2     1.197   
    14.57       0.9282E-2     1.174       0.9853E-2     1.199   
    14.59       0.9331E-2     1.176       0.9907E-2     1.201   
    14.61       0.9380E-2     1.178       0.9961E-2     1.203   
    14.63       0.9429E-2     1.180       0.1002E-1     1.205   
    14.65       0.9479E-2     1.182       0.1007E-1     1.207   
    14.67       0.9530E-2     1.184       0.1013E-1     1.209   
    14.69       0.9581E-2     1.186       0.1018E-1     1.211   
    14.71       0.9632E-2     1.188       0.1024E-1     1.213   
    14.73       0.9684E-2     1.190       0.1030E-1     1.215   
    14.75       0.9736E-2     1.191       0.1035E-1     1.217   
    14.77       0.9788E-2     1.193       0.1041E-1     1.219   
    14.79       0.9841E-2     1.195       0.1047E-1     1.221   
    14.81       0.9895E-2     1.197       0.1053E-1     1.223   
    14.83       0.9949E-2     1.199       0.1059E-1     1.225   
    14.85       0.1000E-1     1.201       0.1065E-1     1.228   
    14.87       0.1006E-1     1.203       0.1071E-1     1.230   
    14.89       0.1011E-1     1.205       0.1077E-1     1.232   
    14.91       0.1017E-1     1.207       0.1083E-1     1.234   
    14.93       0.1023E-1     1.209       0.1090E-1     1.236   
    14.95       0.1028E-1     1.212       0.1096E-1     1.238   
    14.97       0.1034E-1     1.214       0.1102E-1     1.241   
    14.99       0.1040E-1     1.216       0.1109E-1     1.243   
    15.02       0.1046E-1     1.218       0.1115E-1     1.245   
    15.04       0.1051E-1     1.220       0.1122E-1     1.247   
    15.06       0.1057E-1     1.222       0.1128E-1     1.250   
    15.08       0.1063E-1     1.224       0.1135E-1     1.252   
    15.10       0.1069E-1     1.226       0.1142E-1     1.254   
    15.12       0.1076E-1     1.228       0.1149E-1     1.256   
    15.14       0.1082E-1     1.230       0.1156E-1     1.259   
    15.16       0.1088E-1     1.233       0.1163E-1     1.261   
    15.18       0.1094E-1     1.235       0.1170E-1     1.263   
    15.20       0.1101E-1     1.237       0.1177E-1     1.266   
    15.22       0.1107E-1     1.239       0.1184E-1     1.268   
    15.24       0.1113E-1     1.241       0.1191E-1     1.270   
    15.26       0.1120E-1     1.244       0.1198E-1     1.273   
    15.28       0.1126E-1     1.246       0.1206E-1     1.275   
    15.30       0.1133E-1     1.248       0.1213E-1     1.278   
    15.32       0.1140E-1     1.250       0.1221E-1     1.280   
    15.34       0.1147E-1     1.253       0.1228E-1     1.283   
    15.36       0.1153E-1     1.255       0.1236E-1     1.285   
    15.38       0.1160E-1     1.257       0.1244E-1     1.287   
    15.40       0.1167E-1     1.260       0.1252E-1     1.290   
    15.42       0.1174E-1     1.262       0.1260E-1     1.292   
    15.44       0.1181E-1     1.264       0.1268E-1     1.295   
    15.46       0.1189E-1     1.267       0.1276E-1     1.298   
    15.48       0.1196E-1     1.269       0.1284E-1     1.300   
    15.50       0.1203E-1     1.272       0.1292E-1     1.303   
    15.52       0.1211E-1     1.274       0.1301E-1     1.305   
    15.54       0.1218E-1     1.276       0.1309E-1     1.308   
    15.56       0.1226E-1     1.279       0.1318E-1     1.311   
    15.58       0.1233E-1     1.281       0.1326E-1     1.313   
    15.60       0.1241E-1     1.284       0.1335E-1     1.316   
    15.62       0.1249E-1     1.286       0.1344E-1     1.319   
    15.64       0.1257E-1     1.289       0.1353E-1     1.321   
    15.66       0.1265E-1     1.291       0.1362E-1     1.324   
    15.68       0.1273E-1     1.294       0.1371E-1     1.327   
    15.70       0.1281E-1     1.296       0.1380E-1     1.329   
    15.72       0.1289E-1     1.299       0.1390E-1     1.332   
    15.74       0.1297E-1     1.302       0.1399E-1     1.335   
    15.76       0.1306E-1     1.304       0.1409E-1     1.338   
    15.78       0.1314E-1     1.307       0.1418E-1     1.341   
    15.80       0.1323E-1     1.309       0.1428E-1     1.343   
    15.82       0.1331E-1     1.312       0.1438E-1     1.346   
    15.84       0.1340E-1     1.315       0.1448E-1     1.349   
    15.86       0.1349E-1     1.317       0.1458E-1     1.352   
    15.88       0.1358E-1     1.320       0.1469E-1     1.355   
    15.90       0.1367E-1     1.323       0.1479E-1     1.358   
    15.92       0.1376E-1     1.326       0.1490E-1     1.361   
    15.94       0.1386E-1     1.328       0.1500E-1     1.364   
    15.96       0.1395E-1     1.331       0.1511E-1     1.367   
    15.98       0.1405E-1     1.334       0.1522E-1     1.370   
    16.00       0.1414E-1     1.337       0.1533E-1     1.373   
    16.02       0.1424E-1     1.340       0.1545E-1     1.376   
    16.04       0.1434E-1     1.342       0.1556E-1     1.379   
    16.06       0.1444E-1     1.345       0.1568E-1     1.382   
    16.08       0.1454E-1     1.348       0.1579E-1     1.386   
    16.10       0.1464E-1     1.351       0.1591E-1     1.389   
    16.12       0.1474E-1     1.354       0.1603E-1     1.392   
    16.14       0.1485E-1     1.357       0.1615E-1     1.395   
    16.16       0.1495E-1     1.360       0.1628E-1     1.398   
    16.18       0.1506E-1     1.363       0.1640E-1     1.402   
    16.20       0.1517E-1     1.366       0.1653E-1     1.405   
    16.22       0.1528E-1     1.369       0.1666E-1     1.408   
    16.24       0.1539E-1     1.372       0.1679E-1     1.412   
    16.26       0.1550E-1     1.375       0.1692E-1     1.415   
    16.28       0.1562E-1     1.378       0.1705E-1     1.418   
    16.30       0.1573E-1     1.382       0.1719E-1     1.422   
    16.32       0.1585E-1     1.385       0.1733E-1     1.425   
    16.34       0.1597E-1     1.388       0.1747E-1     1.429   
    16.36       0.1609E-1     1.391       0.1761E-1     1.432   
    16.38       0.1621E-1     1.394       0.1776E-1     1.436   
    16.40       0.1634E-1     1.398       0.1790E-1     1.439   
    16.41641      0.01646      1.40087      0.01805      1.44288
    16.43644      0.01659      1.40417      0.01820      1.44651
    16.45646      0.01672      1.40750      0.01836      1.45016
    16.47648      0.01685      1.41086      0.01851      1.45385
    16.49650      0.01698      1.41424      0.01867      1.45757
    16.51652      0.01712      1.41765      0.01883      1.46132
    16.53654      0.01725      1.42109      0.01899      1.46510
    16.55655      0.01739      1.42456      0.01916      1.46891
    16.57657      0.01753      1.42805      0.01933      1.47276
    16.59660      0.01768      1.43157      0.01950      1.47664
    16.61662      0.01782      1.43512      0.01967      1.48056
    16.63664      0.01797      1.43870      0.01985      1.48451
    16.65666      0.01812      1.44231      0.02003      1.48850
    16.67668      0.01827      1.44595      0.02022      1.49252
    16.69670      0.01842      1.44961      0.02040      1.49658
    16.71671      0.01858      1.45331      0.02059      1.50068
    16.73673      0.01874      1.45705      0.02079      1.50482
    16.75676      0.01890      1.46081      0.02098      1.50899
    16.77678      0.01906      1.46460      0.02118      1.51321
    16.79680      0.01923      1.46843      0.02139      1.51746
    16.81682      0.01940      1.47230      0.02160      1.52176
    16.83684      0.01957      1.47619      0.02181      1.52610
    16.85686      0.01975      1.48012      0.02203      1.53048
    16.87688      0.01993      1.48409      0.02225      1.53490
    16.89689      0.02011      1.48809      0.02247      1.53937
    16.91692      0.02029      1.49213      0.02270      1.54389
    16.93694      0.02048      1.49621      0.02293      1.54845
    16.95695      0.02067      1.50032      0.02317      1.55305
    16.97698      0.02086      1.50447      0.02342      1.55771
    16.99700      0.02106      1.50866      0.02367      1.56241
    17.01702      0.02126      1.51289      0.02392      1.56717
    17.03704      0.02147      1.51716      0.02418      1.57197
    17.05706      0.02168      1.52148      0.02444      1.57683
    17.07708      0.02189      1.52583      0.02471      1.58174
    17.09710      0.02211      1.53023      0.02499      1.58670
    17.11712      0.02233      1.53467      0.02527      1.59172
    17.13714      0.02256      1.53916      0.02556      1.59680
    17.15716      0.02279      1.54369      0.02586      1.60194
    17.17718      0.02302      1.54827      0.02616      1.60713
    17.19720      0.02326      1.55289      0.02647      1.61239
    17.21722      0.02351      1.55756      0.02679      1.61771
    17.23724      0.02376      1.56229      0.02712      1.62309
    17.25726      0.02401      1.56706      0.02745      1.62854
    17.27728      0.02427      1.57188      0.02780      1.63406
    17.29730      0.02454      1.57676      0.02815      1.63964
    17.31732      0.02481      1.58169      0.02851      1.64530
    17.33734      0.02509      1.58667      0.02888      1.65103
    17.35736      0.02538      1.59171      0.02926      1.65683
    17.37738      0.02567      1.59681      0.02965      1.66271
    17.39740      0.02597      1.60197      0.03006      1.66867
    17.41742      0.02627      1.60719      0.03047      1.67471
    17.43744      0.02659      1.61247      0.03090      1.68083
    17.45746      0.02691      1.61781      0.03133      1.68703
    17.47748      0.02724      1.62321      0.03179      1.69333
    17.49750      0.02757      1.62869      0.03225      1.69972
    17.51752      0.02792      1.63423      0.03273      1.70620
    17.53754      0.02827      1.63983      0.03323      1.71277
    17.55756      0.02864      1.64551      0.03374      1.71945
    17.57758      0.02901      1.65127      0.03427      1.72623
    17.59760      0.02940      1.65710      0.03482      1.73311
    17.61762      0.02979      1.66300      0.03538      1.74011
    17.63764      0.03020      1.66899      0.03597      1.74721
    17.65766      0.03062      1.67506      0.03658      1.75444
    17.67768      0.03105      1.68121      0.03721      1.76178
    17.69770      0.03149      1.68745      0.03786      1.76926
    17.71772      0.03195      1.69377      0.03854      1.77686
    17.73774      0.03242      1.70019      0.03924      1.78460
    17.75776      0.03291      1.70670      0.03997      1.79248
    17.77778      0.03341      1.71331      0.04074      1.80051
    17.79780      0.03393      1.72003      0.04153      1.80868
    17.81782      0.03446      1.72684      0.04236      1.81702
    17.83784      0.03502      1.73376      0.04323      1.82553
    17.85786      0.03559      1.74080      0.04413      1.83420
    17.87788      0.03618      1.74795      0.04508      1.84306
    17.89790      0.03680      1.75521      0.04607      1.85210
    17.91792      0.03744      1.76261      0.04711      1.86134
    17.93794      0.03810      1.77013      0.04820      1.87079
    17.95796      0.03879      1.77778      0.04935      1.88046
    17.97798      0.03951      1.78557      0.05055      1.89035
    17.99800      0.04026      1.79350      0.05183      1.90048
    18.01802      0.04103      1.80158      0.05317      1.91087
    18.03804      0.04184      1.80982      0.05459      1.92152
    18.05806      0.04269      1.81822      0.05609      1.93245
    18.07808      0.04357      1.82679      0.05769      1.94368
    18.09810      0.04450      1.83553      0.05938      1.95522
    18.11812      0.04547      1.84446      0.06119      1.96709
    18.13814      0.04648      1.85358      0.06311      1.97932
    18.15816      0.04754      1.86291      0.06516      1.99192
    18.17818      0.04866      1.87244      0.06736      2.00493
    18.19820      0.04984      1.88220      0.06972      2.01836
    18.21822      0.05108      1.89219      0.07225      2.03225
    18.23824      0.05239      1.90242      0.07499      2.04662
    18.25826      0.05377      1.91292      0.07794      2.06153
    18.27828      0.05524      1.92369      0.08114      2.07700
    18.29830      0.05679      1.93474      0.08462      2.09308
    18.31832      0.05844      1.94611      0.08841      2.10983
    18.33834      0.06019      1.95779      0.09255      2.12729
    18.35836      0.06206      1.96982      0.09710      2.14552
    18.37838      0.06405      1.98222      0.10210      2.16460
    18.39840      0.06618      1.99500      0.10762      2.18460
    18.41842      0.06847      2.00820      0.11376      2.20562
    18.43844      0.07093      2.02185      0.12058      2.22774
    18.45846      0.07358      2.03596      0.12823      2.25108
    18.47848      0.07643      2.05060      0.13682      2.27577
    18.49850      0.07953      2.06577      0.14654      2.30194
    18.51852      0.08289      2.08155      0.15758      2.32975
    18.53854      0.08655      2.09795      0.17020      2.35940
    18.55856      0.09055      2.11506      0.18473      2.39107
    18.57858      0.09493      2.13291      0.20155      2.42499
    18.59860      0.09974      2.15158      0.22120      2.46142
    18.61862      0.10506      2.17114      0.24430      2.50062
    18.63864      0.11094      2.19168      0.27171      2.54286
    18.65866      0.11749      2.21328      0.30452      2.58841
    18.67868      0.12481      2.23606      0.34416      2.63747
    18.69870      0.13303      2.26013      0.39255      2.69011
    18.71872      0.14231      2.28563      0.45220      2.74610
    18.73874      0.15283      2.31271      0.52645      2.80466
    18.75876      0.16484      2.34155      0.61967      2.86399
    18.77878      0.17862      2.37234      0.73740      2.92037
    18.79880      0.19456      2.40529      0.88611      2.96680
    18.81882      0.21311      2.44065      1.07203      2.99085
    18.83884      0.23488      2.47868      1.29767      2.97216
    18.85886      0.26062      2.51966      1.55434      2.88175
    18.87888      0.29135      2.56384      1.81074      2.68891
    18.89890      0.32835      2.61147      2.00735      2.38268
    18.91892      0.37336      2.66266      2.07644      1.99981
    18.93894      0.42866      2.71733      1.98952      1.62305
    18.95896      0.49727      2.77493      1.78271      1.33113
    18.97898      0.58318      2.83408      1.52510      1.15374
    18.99900      0.69150      2.89188      1.27293      1.07561
    19.01902      0.82845      2.94269      1.05390      1.06540
    19.03904      1.00059      2.97628      0.87473      1.09510
    19.05906      1.21235      2.97535      0.73208      1.14550
    19.07908      1.46017      2.91373      0.61955      1.20502
    19.09910      1.72202      2.75973      0.53077      1.26719
    19.11912      1.94785      2.49201      0.46034      1.32861
    19.13914      2.06828      2.12818      0.40405      1.38766
    19.15916      2.03547      1.73842      0.35868      1.44364
    19.17918      1.86362      1.40987      0.32180      1.49639
    19.19920      1.61611      1.19170      0.29157      1.54601
    19.21922      1.35733      1.08150      0.26662      1.59272
    19.23924      1.12492      1.05053      0.24588      1.63678
    19.25926      0.93165      1.06842      0.22856      1.67848
    19.27928      0.77668      1.11278      0.21401      1.71810
    19.29930      0.65417      1.16963      0.20175      1.75588
    19.31932      0.55758      1.23095      0.19140      1.79206
    19.33934      0.48109      1.29246      0.18264      1.82684
    19.35936      0.42011      1.35200      0.17524      1.86042
    19.37938      0.37108      1.40861      0.16900      1.89297
    19.39940      0.33131      1.46200      0.16375      1.92463
    19.41942      0.29878      1.51216      0.15937      1.95554
    19.43944      0.27195      1.55931      0.15575      1.98582
    19.45946      0.24968      1.60368      0.15281      2.01560
    19.47948      0.23106      1.64557      0.15047      2.04495
    19.49950      0.21542      1.68524      0.14868      2.07399
    19.51952      0.20222      1.72295      0.14738      2.10280
    19.53954      0.19103      1.75895      0.14654      2.13146
    19.55956      0.18153      1.79344      0.14613      2.16004
    19.57958      0.17345      1.82662      0.14613      2.18862
    19.59960      0.16657      1.85866      0.14650      2.21727
    19.61962      0.16073      1.88972      0.14725      2.24605
    19.63964      0.15577      1.91993      0.14836      2.27502
    19.65966      0.15159      1.94942      0.14982      2.30426
    19.67968      0.14809      1.97830      0.15164      2.33383
    19.69970      0.14520      2.00667      0.15381      2.36379
    19.71972      0.14284      2.03462      0.15635      2.39420
    19.73974      0.14096      2.06223      0.15927      2.42514
    19.75976      0.13952      2.08958      0.16257      2.45668
    19.77978      0.13848      2.11674      0.16628      2.48888
    19.79980      0.13781      2.14378      0.17043      2.52182
    19.81982      0.13749      2.17077      0.17503      2.55558
    19.83984      0.13749      2.19775      0.18013      2.59024
    19.85986      0.13780      2.22479      0.18577      2.62590
    19.87988      0.13840      2.25195      0.19199      2.66266
    19.89990      0.13928      2.27926      0.19885      2.70062
    19.91992      0.14045      2.30679      0.20642      2.73988
    19.93994      0.14189      2.33459      0.21478      2.78060
    19.95996      0.14360      2.36270      0.22403      2.82289
    19.97998      0.14558      2.39118      0.23427      2.86691
    20.00000      0.14784      2.42007      0.24564      2.91283
# 
# 07/24/2018 at 09:14 YAMBO @ NewLaptop [start]
# 07/24/2018 at 09:14                   [end]
#
# .-Input file : yambo.in
# | optics                         # [R OPT] Optics
# | bse                            # [R BSE] Bethe Salpeter Equation.
# | bsk                            # [R BSK] Bethe Salpeter Equation kernel
# | bss                            # [R BSS] Bethe Salpeter Equation solver
# | BoseTemp= 0.000000     eV      # Bosonic Temperature
# | FFTGvecs=  4945        RL      # [FFT] Plane-waves
# | NonPDirs= "XYZ"                # [X/BSS] Non periodic chartesian directions (X,Y,Z,XY...)
# | BSEmod= "retarded"             # [BSE] resonant/retarded/coupling
# | BSKmod= "Hartree"              # [BSE] IP/Hartree/HF/ALDA/SEX/BSfxc
# | BSSmod= "d"                    # [BSS] (h)aydock/(d)iagonalization/(i)nversion/(t)ddft`
# | BSENGexx=  4067        RL      # [BSK] Exchange components
# | % KfnQP_E
# |  7.600000 | 1.000000 | 1.000000 |        # [EXTQP BSK BSS] E parameters  (c/v) eV|adim|adim
# | %
# | % BEnRange
# |   0.00000 | 20.00000 | eV      # [BSS] Energy range
# | %
# | % BDmRange
# |   0.10000 |  0.10000 | eV      # [BSS] Damping range
# | %
# | BEnSteps= 1000                 # [BSS] Energy steps
# | % BLongDir
# | 0.1000E-4 | 0.000    | 0.000    |        # [BSS] [cc] Electric Field
# | %
# | % BSEBands
# |    1 |  50 |                   # [BSK] Bands range
# | %
