#                                                           
#  __  __   ________   ___ __ __    _______   ______        
# /_/\/_/\ /_______/\ /__//_//_/\ /_______/\ /_____/\       
# \ \ \ \ \\::: _  \ \\::\| \| \ \\::: _  \ \\:::_ \ \      
#  \:\_\ \ \\::(_)  \ \\:.      \ \\::(_)  \/_\:\ \ \ \     
#   \::::_\/ \:: __  \ \\:.\-/\  \ \\::  _  \ \\:\ \ \ \    
#     \::\ \  \:.\ \  \ \\. \  \  \ \\::(_)  \ \\:\_\ \ \   
#      \__\/   \__\/\__\/ \__\/ \__\/ \_______\/ \_____\/   
#                                                           
#                                                           
#        Version 4.2.0 Revision 14319 Hash 8432f48          
#                  MPI+SLK+OpenMP Build                     
#                http://www.yambo-code.org                  
#
# Joint density of states @ Q(1) [q->0 direction] :0.1000E-4  0.000     0.000   
#
# - Energies      are Teter 93(XC)+Scissor
# - The Green`s function is Retarded -
#
#   BSK|Identifier              :2874
#      |Dimension               :199
#      |Bands                   :1 - 200
#      |Exchange           [res]: yes
#      |Correlation        [res]: no
#      |Kernel`s coupling       : no
#      |Exchange           [cpl]: no
#      |Correlation        [cpl]: no
#      |W interaction is bare   : no
#      |ALDA kernel in R-space  : no
#      |RL vectors    [exchange]:9045
#      |E/h energy range    [ev]:-1.000000 - -1.000000
#      |Coupling range     [o/o]: 100.0000 -  100.0000
#
#  E/ev[1]    jdos-Im[2] jdos-Re[3] jdoso-Im[4]jdoso-Re[5]jdos`-Im[6]jdos`-Re[7]
#
  0.000000   0.000000   0.762316   0.000000   0.765364
 0.2002E-1  0.6180E-5  0.7623     0.6271E-5  0.7654   
 0.4004E-1  0.1236E-4  0.7623     0.1254E-4  0.7654   
 0.6006E-1  0.1854E-4  0.7623     0.1881E-4  0.7654   
 0.8008E-1  0.2472E-4  0.7623     0.2508E-4  0.7654   
 0.1001     0.3090E-4  0.7623     0.3135E-4  0.7654   
 0.1201     0.3708E-4  0.7623     0.3763E-4  0.7654   
 0.1401     0.4326E-4  0.7623     0.4390E-4  0.7654   
 0.1602     0.4945E-4  0.7624     0.5017E-4  0.7654   
 0.1802     0.5563E-4  0.7624     0.5644E-4  0.7654   
 0.2002     0.6181E-4  0.7624     0.6272E-4  0.7654   
 0.2202     0.6799E-4  0.7624     0.6899E-4  0.7654   
 0.2402     0.7418E-4  0.7624     0.7527E-4  0.7655   
 0.2603     0.8036E-4  0.7624     0.8154E-4  0.7655   
 0.2803     0.8655E-4  0.7624     0.8782E-4  0.7655   
 0.3003     0.9274E-4  0.7625     0.9410E-4  0.7655   
 0.3203     0.9892E-4  0.7625     0.1004E-3  0.7655   
 0.3403     0.1051E-3  0.7625     0.1067E-3  0.7655   
 0.3604     0.1113E-3  0.7625     0.1129E-3  0.7656   
 0.3804     0.1175E-3  0.7625     0.1192E-3  0.7656   
 0.4004     0.1237E-3  0.7626     0.1255E-3  0.7656   
 0.4204     0.1299E-3  0.7626     0.1318E-3  0.7656   
 0.4404     0.1361E-3  0.7626     0.1381E-3  0.7657   
 0.4605     0.1423E-3  0.7626     0.1444E-3  0.7657   
 0.4805     0.1485E-3  0.7627     0.1507E-3  0.7657   
 0.5005     0.1547E-3  0.7627     0.1569E-3  0.7658   
 0.5205     0.1609E-3  0.7627     0.1632E-3  0.7658   
 0.5405     0.1671E-3  0.7628     0.1695E-3  0.7658   
 0.5606     0.1733E-3  0.7628     0.1758E-3  0.7659   
 0.5806     0.1795E-3  0.7628     0.1821E-3  0.7659   
 0.6006     0.1857E-3  0.7629     0.1884E-3  0.7659   
 0.6206     0.1919E-3  0.7629     0.1947E-3  0.7660   
 0.6406     0.1981E-3  0.7630     0.2010E-3  0.7660   
 0.6607     0.2043E-3  0.7630     0.2073E-3  0.7660   
 0.6807     0.2105E-3  0.7630     0.2136E-3  0.7661   
 0.7007     0.2168E-3  0.7631     0.2200E-3  0.7661   
 0.7207     0.2230E-3  0.7631     0.2263E-3  0.7662   
 0.7407     0.2292E-3  0.7632     0.2326E-3  0.7662   
 0.7608     0.2354E-3  0.7632     0.2389E-3  0.7663   
 0.7808     0.2417E-3  0.7633     0.2452E-3  0.7663   
 0.8008     0.2479E-3  0.7633     0.2515E-3  0.7664   
 0.8208     0.2541E-3  0.7634     0.2579E-3  0.7664   
 0.8408     0.2604E-3  0.7634     0.2642E-3  0.7665   
 0.8609     0.2666E-3  0.7635     0.2705E-3  0.7665   
 0.8809     0.2728E-3  0.7635     0.2769E-3  0.7666   
 0.9009     0.2791E-3  0.7636     0.2832E-3  0.7666   
 0.9209     0.2853E-3  0.7636     0.2895E-3  0.7667   
 0.9409     0.2916E-3  0.7637     0.2959E-3  0.7668   
 0.9610     0.2978E-3  0.7637     0.3022E-3  0.7668   
 0.9810     0.3041E-3  0.7638     0.3086E-3  0.7669   
  1.001     0.3104E-3  0.7639     0.3149E-3  0.7669   
  1.021     0.3166E-3  0.7639     0.3213E-3  0.7670   
  1.041     0.3229E-3  0.7640     0.3277E-3  0.7671   
  1.061     0.3292E-3  0.7641     0.3340E-3  0.7671   
  1.081     0.3354E-3  0.7641     0.3404E-3  0.7672   
  1.101     0.3417E-3  0.7642     0.3468E-3  0.7673   
  1.121     0.3480E-3  0.7643     0.3531E-3  0.7673   
  1.141     0.3543E-3  0.7643     0.3595E-3  0.7674   
  1.161     0.3606E-3  0.7644     0.3659E-3  0.7675   
  1.181     0.3669E-3  0.7645     0.3723E-3  0.7676   
  1.201     0.3731E-3  0.7646     0.3787E-3  0.7676   
  1.221     0.3794E-3  0.7646     0.3851E-3  0.7677   
  1.241     0.3858E-3  0.7647     0.3915E-3  0.7678   
  1.261     0.3921E-3  0.7648     0.3979E-3  0.7679   
  1.281     0.3984E-3  0.7649     0.4043E-3  0.7679   
  1.301     0.4047E-3  0.7649     0.4107E-3  0.7680   
  1.321     0.4110E-3  0.7650     0.4171E-3  0.7681   
  1.341     0.4173E-3  0.7651     0.4235E-3  0.7682   
  1.361     0.4237E-3  0.7652     0.4299E-3  0.7683   
  1.381     0.4300E-3  0.7653     0.4364E-3  0.7684   
  1.401     0.4363E-3  0.7654     0.4428E-3  0.7685   
  1.421     0.4427E-3  0.7654     0.4492E-3  0.7685   
  1.441     0.4490E-3  0.7655     0.4557E-3  0.7686   
  1.461     0.4554E-3  0.7656     0.4621E-3  0.7687   
  1.481     0.4617E-3  0.7657     0.4686E-3  0.7688   
  1.502     0.4681E-3  0.7658     0.4751E-3  0.7689   
  1.522     0.4745E-3  0.7659     0.4815E-3  0.7690   
  1.542     0.4808E-3  0.7660     0.4880E-3  0.7691   
  1.562     0.4872E-3  0.7661     0.4945E-3  0.7692   
  1.582     0.4936E-3  0.7662     0.5009E-3  0.7693   
  1.602     0.5000E-3  0.7663     0.5074E-3  0.7694   
  1.622     0.5064E-3  0.7664     0.5139E-3  0.7695   
  1.642     0.5128E-3  0.7665     0.5204E-3  0.7696   
  1.662     0.5192E-3  0.7666     0.5269E-3  0.7697   
  1.682     0.5256E-3  0.7667     0.5334E-3  0.7698   
  1.702     0.5320E-3  0.7668     0.5399E-3  0.7699   
  1.722     0.5384E-3  0.7669     0.5465E-3  0.7700   
  1.742     0.5449E-3  0.7670     0.5530E-3  0.7701   
  1.762     0.5513E-3  0.7671     0.5595E-3  0.7703   
  1.782     0.5577E-3  0.7672     0.5661E-3  0.7704   
  1.802     0.5642E-3  0.7674     0.5726E-3  0.7705   
  1.822     0.5706E-3  0.7675     0.5791E-3  0.7706   
  1.842     0.5771E-3  0.7676     0.5857E-3  0.7707   
  1.862     0.5836E-3  0.7677     0.5923E-3  0.7708   
  1.882     0.5900E-3  0.7678     0.5988E-3  0.7710   
  1.902     0.5965E-3  0.7679     0.6054E-3  0.7711   
  1.922     0.6030E-3  0.7681     0.6120E-3  0.7712   
  1.942     0.6095E-3  0.7682     0.6186E-3  0.7713   
  1.962     0.6160E-3  0.7683     0.6252E-3  0.7714   
  1.982     0.6225E-3  0.7684     0.6318E-3  0.7716   
  2.002     0.6290E-3  0.7686     0.6384E-3  0.7717   
  2.022     0.6355E-3  0.7687     0.6450E-3  0.7718   
  2.042     0.6420E-3  0.7688     0.6516E-3  0.7720   
  2.062     0.6486E-3  0.7689     0.6583E-3  0.7721   
  2.082     0.6551E-3  0.7691     0.6649E-3  0.7722   
  2.102     0.6616E-3  0.7692     0.6716E-3  0.7724   
  2.122     0.6682E-3  0.7693     0.6782E-3  0.7725   
  2.142     0.6747E-3  0.7695     0.6849E-3  0.7726   
  2.162     0.6813E-3  0.7696     0.6915E-3  0.7728   
  2.182     0.6879E-3  0.7697     0.6982E-3  0.7729   
  2.202     0.6945E-3  0.7699     0.7049E-3  0.7730   
  2.222     0.7011E-3  0.7700     0.7116E-3  0.7732   
  2.242     0.7077E-3  0.7702     0.7183E-3  0.7733   
  2.262     0.7143E-3  0.7703     0.7250E-3  0.7735   
  2.282     0.7209E-3  0.7704     0.7317E-3  0.7736   
  2.302     0.7275E-3  0.7706     0.7384E-3  0.7738   
  2.322     0.7341E-3  0.7707     0.7452E-3  0.7739   
  2.342     0.7408E-3  0.7709     0.7519E-3  0.7741   
  2.362     0.7474E-3  0.7710     0.7587E-3  0.7742   
  2.382     0.7540E-3  0.7712     0.7654E-3  0.7744   
  2.402     0.7607E-3  0.7713     0.7722E-3  0.7745   
  2.422     0.7674E-3  0.7715     0.7790E-3  0.7747   
  2.442     0.7741E-3  0.7716     0.7857E-3  0.7748   
  2.462     0.7807E-3  0.7718     0.7925E-3  0.7750   
  2.482     0.7874E-3  0.7720     0.7993E-3  0.7751   
  2.503     0.7941E-3  0.7721     0.8062E-3  0.7753   
  2.523     0.8008E-3  0.7723     0.8130E-3  0.7755   
  2.543     0.8076E-3  0.7724     0.8198E-3  0.7756   
  2.563     0.8143E-3  0.7726     0.8266E-3  0.7758   
  2.583     0.8210E-3  0.7728     0.8335E-3  0.7760   
  2.603     0.8278E-3  0.7729     0.8403E-3  0.7761   
  2.623     0.8345E-3  0.7731     0.8472E-3  0.7763   
  2.643     0.8413E-3  0.7733     0.8541E-3  0.7765   
  2.663     0.8481E-3  0.7734     0.8610E-3  0.7766   
  2.683     0.8549E-3  0.7736     0.8679E-3  0.7768   
  2.703     0.8617E-3  0.7738     0.8748E-3  0.7770   
  2.723     0.8685E-3  0.7739     0.8817E-3  0.7772   
  2.743     0.8753E-3  0.7741     0.8886E-3  0.7773   
  2.763     0.8821E-3  0.7743     0.8955E-3  0.7775   
  2.783     0.8889E-3  0.7745     0.9025E-3  0.7777   
  2.803     0.8958E-3  0.7747     0.9094E-3  0.7779   
  2.823     0.9026E-3  0.7748     0.9164E-3  0.7781   
  2.843     0.9095E-3  0.7750     0.9234E-3  0.7783   
  2.863     0.9164E-3  0.7752     0.9304E-3  0.7784   
  2.883     0.9232E-3  0.7754     0.9374E-3  0.7786   
  2.903     0.9301E-3  0.7756     0.9444E-3  0.7788   
  2.923     0.9370E-3  0.7758     0.9514E-3  0.7790   
  2.943     0.9440E-3  0.7759     0.9584E-3  0.7792   
  2.963     0.9509E-3  0.7761     0.9655E-3  0.7794   
  2.983     0.9578E-3  0.7763     0.9725E-3  0.7796   
  3.003     0.9648E-3  0.7765     0.9796E-3  0.7798   
  3.023     0.9717E-3  0.7767     0.9866E-3  0.7800   
  3.043     0.9787E-3  0.7769     0.9937E-3  0.7802   
  3.063     0.9857E-3  0.7771     0.1001E-2  0.7804   
  3.083     0.9927E-3  0.7773     0.1008E-2  0.7806   
  3.103     0.9997E-3  0.7775     0.1015E-2  0.7808   
  3.123     0.1007E-2  0.7777     0.1022E-2  0.7810   
  3.143     0.1014E-2  0.7779     0.1029E-2  0.7812   
  3.163     0.1021E-2  0.7781     0.1036E-2  0.7814   
  3.183     0.1028E-2  0.7783     0.1044E-2  0.7816   
  3.203     0.1035E-2  0.7785     0.1051E-2  0.7818   
  3.223     0.1042E-2  0.7787     0.1058E-2  0.7820   
  3.243     0.1049E-2  0.7789     0.1065E-2  0.7822   
  3.263     0.1056E-2  0.7791     0.1072E-2  0.7824   
  3.283     0.1063E-2  0.7794     0.1080E-2  0.7827   
  3.303     0.1070E-2  0.7796     0.1087E-2  0.7829   
  3.323     0.1077E-2  0.7798     0.1094E-2  0.7831   
  3.343     0.1085E-2  0.7800     0.1101E-2  0.7833   
  3.363     0.1092E-2  0.7802     0.1109E-2  0.7835   
  3.383     0.1099E-2  0.7804     0.1116E-2  0.7838   
  3.403     0.1106E-2  0.7807     0.1123E-2  0.7840   
  3.423     0.1113E-2  0.7809     0.1131E-2  0.7842   
  3.443     0.1120E-2  0.7811     0.1138E-2  0.7844   
  3.463     0.1128E-2  0.7813     0.1145E-2  0.7847   
  3.483     0.1135E-2  0.7816     0.1153E-2  0.7849   
  3.504     0.1142E-2  0.7818     0.1160E-2  0.7851   
  3.524     0.1149E-2  0.7820     0.1167E-2  0.7854   
  3.544     0.1157E-2  0.7822     0.1175E-2  0.7856   
  3.564     0.1164E-2  0.7825     0.1182E-2  0.7858   
  3.584     0.1171E-2  0.7827     0.1190E-2  0.7861   
  3.604     0.1179E-2  0.7829     0.1197E-2  0.7863   
  3.624     0.1186E-2  0.7832     0.1205E-2  0.7865   
  3.644     0.1193E-2  0.7834     0.1212E-2  0.7868   
  3.664     0.1201E-2  0.7837     0.1219E-2  0.7870   
  3.684     0.1208E-2  0.7839     0.1227E-2  0.7873   
  3.704     0.1215E-2  0.7841     0.1234E-2  0.7875   
  3.724     0.1223E-2  0.7844     0.1242E-2  0.7878   
  3.744     0.1230E-2  0.7846     0.1250E-2  0.7880   
  3.764     0.1238E-2  0.7849     0.1257E-2  0.7883   
  3.784     0.1245E-2  0.7851     0.1265E-2  0.7885   
  3.804     0.1253E-2  0.7854     0.1272E-2  0.7888   
  3.824     0.1260E-2  0.7856     0.1280E-2  0.7890   
  3.844     0.1267E-2  0.7859     0.1287E-2  0.7893   
  3.864     0.1275E-2  0.7861     0.1295E-2  0.7895   
  3.884     0.1282E-2  0.7864     0.1303E-2  0.7898   
  3.904     0.1290E-2  0.7866     0.1310E-2  0.7901   
  3.924     0.1298E-2  0.7869     0.1318E-2  0.7903   
  3.944     0.1305E-2  0.7872     0.1326E-2  0.7906   
  3.964     0.1313E-2  0.7874     0.1334E-2  0.7909   
  3.984     0.1320E-2  0.7877     0.1341E-2  0.7911   
  4.004     0.1328E-2  0.7880     0.1349E-2  0.7914   
  4.024     0.1335E-2  0.7882     0.1357E-2  0.7917   
  4.044     0.1343E-2  0.7885     0.1365E-2  0.7919   
  4.064     0.1351E-2  0.7888     0.1372E-2  0.7922   
  4.084     0.1358E-2  0.7890     0.1380E-2  0.7925   
  4.104     0.1366E-2  0.7893     0.1388E-2  0.7928   
  4.124     0.1374E-2  0.7896     0.1396E-2  0.7930   
  4.144     0.1382E-2  0.7899     0.1404E-2  0.7933   
  4.164     0.1389E-2  0.7901     0.1412E-2  0.7936   
  4.184     0.1397E-2  0.7904     0.1419E-2  0.7939   
  4.204     0.1405E-2  0.7907     0.1427E-2  0.7942   
  4.224     0.1413E-2  0.7910     0.1435E-2  0.7945   
  4.244     0.1420E-2  0.7913     0.1443E-2  0.7948   
  4.264     0.1428E-2  0.7915     0.1451E-2  0.7950   
  4.284     0.1436E-2  0.7918     0.1459E-2  0.7953   
  4.304     0.1444E-2  0.7921     0.1467E-2  0.7956   
  4.324     0.1452E-2  0.7924     0.1475E-2  0.7959   
  4.344     0.1460E-2  0.7927     0.1483E-2  0.7962   
  4.364     0.1468E-2  0.7930     0.1491E-2  0.7965   
  4.384     0.1475E-2  0.7933     0.1499E-2  0.7968   
  4.404     0.1483E-2  0.7936     0.1507E-2  0.7971   
  4.424     0.1491E-2  0.7939     0.1516E-2  0.7974   
  4.444     0.1499E-2  0.7942     0.1524E-2  0.7977   
  4.464     0.1507E-2  0.7945     0.1532E-2  0.7980   
  4.484     0.1515E-2  0.7948     0.1540E-2  0.7983   
  4.505     0.1523E-2  0.7951     0.1548E-2  0.7986   
  4.525     0.1531E-2  0.7954     0.1556E-2  0.7990   
  4.545     0.1540E-2  0.7957     0.1565E-2  0.7993   
  4.565     0.1548E-2  0.7960     0.1573E-2  0.7996   
  4.585     0.1556E-2  0.7963     0.1581E-2  0.7999   
  4.605     0.1564E-2  0.7966     0.1589E-2  0.8002   
  4.625     0.1572E-2  0.7969     0.1598E-2  0.8005   
  4.645     0.1580E-2  0.7973     0.1606E-2  0.8009   
  4.665     0.1588E-2  0.7976     0.1614E-2  0.8012   
  4.685     0.1597E-2  0.7979     0.1623E-2  0.8015   
  4.705     0.1605E-2  0.7982     0.1631E-2  0.8018   
  4.725     0.1613E-2  0.7985     0.1640E-2  0.8022   
  4.745     0.1621E-2  0.7989     0.1648E-2  0.8025   
  4.765     0.1630E-2  0.7992     0.1656E-2  0.8028   
  4.785     0.1638E-2  0.7995     0.1665E-2  0.8031   
  4.805     0.1646E-2  0.7998     0.1673E-2  0.8035   
  4.825     0.1655E-2  0.8002     0.1682E-2  0.8038   
  4.845     0.1663E-2  0.8005     0.1690E-2  0.8042   
  4.865     0.1671E-2  0.8008     0.1699E-2  0.8045   
  4.885     0.1680E-2  0.8012     0.1708E-2  0.8048   
  4.905     0.1688E-2  0.8015     0.1716E-2  0.8052   
  4.925     0.1697E-2  0.8019     0.1725E-2  0.8055   
  4.945     0.1705E-2  0.8022     0.1733E-2  0.8059   
  4.965     0.1714E-2  0.8025     0.1742E-2  0.8062   
  4.985     0.1722E-2  0.8029     0.1751E-2  0.8066   
  5.005     0.1731E-2  0.8032     0.1760E-2  0.8069   
  5.025     0.1739E-2  0.8036     0.1768E-2  0.8073   
  5.045     0.1748E-2  0.8039     0.1777E-2  0.8076   
  5.065     0.1756E-2  0.8043     0.1786E-2  0.8080   
  5.085     0.1765E-2  0.8046     0.1795E-2  0.8083   
  5.105     0.1774E-2  0.8050     0.1803E-2  0.8087   
  5.125     0.1782E-2  0.8053     0.1812E-2  0.8091   
  5.145     0.1791E-2  0.8057     0.1821E-2  0.8094   
  5.165     0.1800E-2  0.8061     0.1830E-2  0.8098   
  5.185     0.1809E-2  0.8064     0.1839E-2  0.8102   
  5.205     0.1817E-2  0.8068     0.1848E-2  0.8105   
  5.225     0.1826E-2  0.8071     0.1857E-2  0.8109   
  5.245     0.1835E-2  0.8075     0.1866E-2  0.8113   
  5.265     0.1844E-2  0.8079     0.1875E-2  0.8116   
  5.285     0.1853E-2  0.8082     0.1884E-2  0.8120   
  5.305     0.1862E-2  0.8086     0.1893E-2  0.8124   
  5.325     0.1870E-2  0.8090     0.1902E-2  0.8128   
  5.345     0.1879E-2  0.8094     0.1911E-2  0.8132   
  5.365     0.1888E-2  0.8097     0.1920E-2  0.8135   
  5.385     0.1897E-2  0.8101     0.1930E-2  0.8139   
  5.405     0.1906E-2  0.8105     0.1939E-2  0.8143   
  5.425     0.1915E-2  0.8109     0.1948E-2  0.8147   
  5.445     0.1924E-2  0.8113     0.1957E-2  0.8151   
  5.465     0.1933E-2  0.8117     0.1967E-2  0.8155   
  5.485     0.1943E-2  0.8120     0.1976E-2  0.8159   
  5.506     0.1952E-2  0.8124     0.1985E-2  0.8163   
  5.526     0.1961E-2  0.8128     0.1995E-2  0.8167   
  5.546     0.1970E-2  0.8132     0.2004E-2  0.8171   
  5.566     0.1979E-2  0.8136     0.2013E-2  0.8175   
  5.586     0.1989E-2  0.8140     0.2023E-2  0.8179   
  5.606     0.1998E-2  0.8144     0.2032E-2  0.8183   
  5.626     0.2007E-2  0.8148     0.2042E-2  0.8187   
  5.646     0.2016E-2  0.8152     0.2051E-2  0.8191   
  5.666     0.2026E-2  0.8156     0.2061E-2  0.8195   
  5.686     0.2035E-2  0.8160     0.2070E-2  0.8199   
  5.706     0.2045E-2  0.8164     0.2080E-2  0.8203   
  5.726     0.2054E-2  0.8168     0.2090E-2  0.8208   
  5.746     0.2063E-2  0.8173     0.2099E-2  0.8212   
  5.766     0.2073E-2  0.8177     0.2109E-2  0.8216   
  5.786     0.2082E-2  0.8181     0.2119E-2  0.8220   
  5.806     0.2092E-2  0.8185     0.2129E-2  0.8225   
  5.826     0.2102E-2  0.8189     0.2138E-2  0.8229   
  5.846     0.2111E-2  0.8193     0.2148E-2  0.8233   
  5.866     0.2121E-2  0.8198     0.2158E-2  0.8237   
  5.886     0.2130E-2  0.8202     0.2168E-2  0.8242   
  5.906     0.2140E-2  0.8206     0.2178E-2  0.8246   
  5.926     0.2150E-2  0.8211     0.2188E-2  0.8250   
  5.946     0.2160E-2  0.8215     0.2198E-2  0.8255   
  5.966     0.2169E-2  0.8219     0.2208E-2  0.8259   
  5.986     0.2179E-2  0.8224     0.2218E-2  0.8264   
  6.006     0.2189E-2  0.8228     0.2228E-2  0.8268   
  6.026     0.2199E-2  0.8232     0.2238E-2  0.8273   
  6.046     0.2209E-2  0.8237     0.2248E-2  0.8277   
  6.066     0.2219E-2  0.8241     0.2258E-2  0.8282   
  6.086     0.2229E-2  0.8246     0.2268E-2  0.8286   
  6.106     0.2239E-2  0.8250     0.2279E-2  0.8291   
  6.126     0.2249E-2  0.8255     0.2289E-2  0.8295   
  6.146     0.2259E-2  0.8259     0.2299E-2  0.8300   
  6.166     0.2269E-2  0.8264     0.2309E-2  0.8304   
  6.186     0.2279E-2  0.8268     0.2320E-2  0.8309   
  6.206     0.2289E-2  0.8273     0.2330E-2  0.8314   
  6.226     0.2299E-2  0.8277     0.2341E-2  0.8318   
  6.246     0.2310E-2  0.8282     0.2351E-2  0.8323   
  6.266     0.2320E-2  0.8287     0.2362E-2  0.8328   
  6.286     0.2330E-2  0.8291     0.2372E-2  0.8333   
  6.306     0.2340E-2  0.8296     0.2383E-2  0.8337   
  6.326     0.2351E-2  0.8301     0.2393E-2  0.8342   
  6.346     0.2361E-2  0.8305     0.2404E-2  0.8347   
  6.366     0.2371E-2  0.8310     0.2415E-2  0.8352   
  6.386     0.2382E-2  0.8315     0.2425E-2  0.8357   
  6.406     0.2392E-2  0.8320     0.2436E-2  0.8361   
  6.426     0.2403E-2  0.8324     0.2447E-2  0.8366   
  6.446     0.2414E-2  0.8329     0.2458E-2  0.8371   
  6.466     0.2424E-2  0.8334     0.2468E-2  0.8376   
  6.486     0.2435E-2  0.8339     0.2479E-2  0.8381   
  6.507     0.2445E-2  0.8344     0.2490E-2  0.8386   
  6.527     0.2456E-2  0.8349     0.2501E-2  0.8391   
  6.547     0.2467E-2  0.8354     0.2512E-2  0.8396   
  6.567     0.2478E-2  0.8359     0.2523E-2  0.8401   
  6.587     0.2488E-2  0.8364     0.2534E-2  0.8406   
  6.607     0.2499E-2  0.8369     0.2545E-2  0.8411   
  6.627     0.2510E-2  0.8374     0.2557E-2  0.8416   
  6.647     0.2521E-2  0.8379     0.2568E-2  0.8422   
  6.667     0.2532E-2  0.8384     0.2579E-2  0.8427   
  6.687     0.2543E-2  0.8389     0.2590E-2  0.8432   
  6.707     0.2554E-2  0.8394     0.2602E-2  0.8437   
  6.727     0.2565E-2  0.8399     0.2613E-2  0.8442   
  6.747     0.2576E-2  0.8404     0.2624E-2  0.8448   
  6.767     0.2587E-2  0.8409     0.2636E-2  0.8453   
  6.787     0.2599E-2  0.8414     0.2647E-2  0.8458   
  6.807     0.2610E-2  0.8420     0.2659E-2  0.8463   
  6.827     0.2621E-2  0.8425     0.2670E-2  0.8469   
  6.847     0.2632E-2  0.8430     0.2682E-2  0.8474   
  6.867     0.2644E-2  0.8435     0.2694E-2  0.8479   
  6.887     0.2655E-2  0.8441     0.2705E-2  0.8485   
  6.907     0.2666E-2  0.8446     0.2717E-2  0.8490   
  6.927     0.2678E-2  0.8451     0.2729E-2  0.8496   
  6.947     0.2689E-2  0.8457     0.2741E-2  0.8501   
  6.967     0.2701E-2  0.8462     0.2752E-2  0.8507   
  6.987     0.2713E-2  0.8468     0.2764E-2  0.8512   
  7.007     0.2724E-2  0.8473     0.2776E-2  0.8518   
  7.027     0.2736E-2  0.8478     0.2788E-2  0.8523   
  7.047     0.2748E-2  0.8484     0.2800E-2  0.8529   
  7.067     0.2759E-2  0.8489     0.2812E-2  0.8535   
  7.087     0.2771E-2  0.8495     0.2824E-2  0.8540   
  7.107     0.2783E-2  0.8501     0.2837E-2  0.8546   
  7.127     0.2795E-2  0.8506     0.2849E-2  0.8552   
  7.147     0.2807E-2  0.8512     0.2861E-2  0.8557   
  7.167     0.2819E-2  0.8517     0.2873E-2  0.8563   
  7.187     0.2831E-2  0.8523     0.2886E-2  0.8569   
  7.207     0.2843E-2  0.8529     0.2898E-2  0.8575   
  7.227     0.2855E-2  0.8534     0.2911E-2  0.8580   
  7.247     0.2867E-2  0.8540     0.2923E-2  0.8586   
  7.267     0.2879E-2  0.8546     0.2936E-2  0.8592   
  7.287     0.2892E-2  0.8552     0.2948E-2  0.8598   
  7.307     0.2904E-2  0.8557     0.2961E-2  0.8604   
  7.327     0.2916E-2  0.8563     0.2973E-2  0.8610   
  7.347     0.2929E-2  0.8569     0.2986E-2  0.8616   
  7.367     0.2941E-2  0.8575     0.2999E-2  0.8622   
  7.387     0.2954E-2  0.8581     0.3012E-2  0.8628   
  7.407     0.2966E-2  0.8587     0.3025E-2  0.8634   
  7.427     0.2979E-2  0.8593     0.3038E-2  0.8640   
  7.447     0.2991E-2  0.8599     0.3051E-2  0.8646   
  7.467     0.3004E-2  0.8605     0.3064E-2  0.8652   
  7.487     0.3017E-2  0.8611     0.3077E-2  0.8658   
  7.508     0.3029E-2  0.8617     0.3090E-2  0.8664   
  7.528     0.3042E-2  0.8623     0.3103E-2  0.8671   
  7.548     0.3055E-2  0.8629     0.3116E-2  0.8677   
  7.568     0.3068E-2  0.8635     0.3130E-2  0.8683   
  7.588     0.3081E-2  0.8641     0.3143E-2  0.8689   
  7.608     0.3094E-2  0.8648     0.3156E-2  0.8696   
  7.628     0.3107E-2  0.8654     0.3170E-2  0.8702   
  7.648     0.3120E-2  0.8660     0.3183E-2  0.8708   
  7.668     0.3133E-2  0.8666     0.3197E-2  0.8715   
  7.688     0.3147E-2  0.8672     0.3211E-2  0.8721   
  7.708     0.3160E-2  0.8679     0.3224E-2  0.8728   
  7.728     0.3173E-2  0.8685     0.3238E-2  0.8734   
  7.748     0.3187E-2  0.8692     0.3252E-2  0.8741   
  7.768     0.3200E-2  0.8698     0.3266E-2  0.8747   
  7.788     0.3214E-2  0.8704     0.3280E-2  0.8754   
  7.808     0.3227E-2  0.8711     0.3294E-2  0.8760   
  7.828     0.3241E-2  0.8717     0.3308E-2  0.8767   
  7.848     0.3255E-2  0.8724     0.3322E-2  0.8773   
  7.868     0.3268E-2  0.8730     0.3336E-2  0.8780   
  7.888     0.3282E-2  0.8737     0.3350E-2  0.8787   
  7.908     0.3296E-2  0.8743     0.3364E-2  0.8794   
  7.928     0.3310E-2  0.8750     0.3379E-2  0.8800   
  7.948     0.3324E-2  0.8757     0.3393E-2  0.8807   
  7.968     0.3338E-2  0.8763     0.3408E-2  0.8814   
  7.988     0.3352E-2  0.8770     0.3422E-2  0.8821   
  8.008     0.3366E-2  0.8777     0.3437E-2  0.8828   
  8.028     0.3380E-2  0.8783     0.3451E-2  0.8834   
  8.048     0.3394E-2  0.8790     0.3466E-2  0.8841   
  8.068     0.3409E-2  0.8797     0.3481E-2  0.8848   
  8.088     0.3423E-2  0.8804     0.3496E-2  0.8855   
  8.108     0.3438E-2  0.8811     0.3510E-2  0.8862   
  8.128     0.3452E-2  0.8818     0.3525E-2  0.8869   
  8.148     0.3467E-2  0.8825     0.3540E-2  0.8876   
  8.168     0.3481E-2  0.8832     0.3556E-2  0.8884   
  8.188     0.3496E-2  0.8839     0.3571E-2  0.8891   
  8.208     0.3511E-2  0.8846     0.3586E-2  0.8898   
  8.228     0.3525E-2  0.8853     0.3601E-2  0.8905   
  8.248     0.3540E-2  0.8860     0.3617E-2  0.8912   
  8.268     0.3555E-2  0.8867     0.3632E-2  0.8920   
  8.288     0.3570E-2  0.8874     0.3648E-2  0.8927   
  8.308     0.3585E-2  0.8881     0.3663E-2  0.8934   
  8.328     0.3600E-2  0.8888     0.3679E-2  0.8941   
  8.348     0.3616E-2  0.8895     0.3694E-2  0.8949   
  8.368     0.3631E-2  0.8903     0.3710E-2  0.8956   
  8.388     0.3646E-2  0.8910     0.3726E-2  0.8964   
  8.408     0.3662E-2  0.8917     0.3742E-2  0.8971   
  8.428     0.3677E-2  0.8925     0.3758E-2  0.8979   
  8.448     0.3693E-2  0.8932     0.3774E-2  0.8986   
  8.468     0.3708E-2  0.8939     0.3790E-2  0.8994   
  8.488     0.3724E-2  0.8947     0.3806E-2  0.9001   
  8.509     0.3740E-2  0.8954     0.3823E-2  0.9009   
  8.529     0.3756E-2  0.8962     0.3839E-2  0.9017   
  8.549     0.3771E-2  0.8969     0.3856E-2  0.9024   
  8.569     0.3787E-2  0.8977     0.3872E-2  0.9032   
  8.589     0.3803E-2  0.8985     0.3889E-2  0.9040   
  8.609     0.3820E-2  0.8992     0.3905E-2  0.9048   
  8.629     0.3836E-2  0.9000     0.3922E-2  0.9056   
  8.649     0.3852E-2  0.9008     0.3939E-2  0.9063   
  8.669     0.3868E-2  0.9015     0.3956E-2  0.9071   
  8.689     0.3885E-2  0.9023     0.3973E-2  0.9079   
  8.709     0.3901E-2  0.9031     0.3990E-2  0.9087   
  8.729     0.3918E-2  0.9039     0.4007E-2  0.9095   
  8.749     0.3935E-2  0.9047     0.4024E-2  0.9103   
  8.769     0.3951E-2  0.9054     0.4042E-2  0.9111   
  8.789     0.3968E-2  0.9062     0.4059E-2  0.9119   
  8.809     0.3985E-2  0.9070     0.4077E-2  0.9128   
  8.829     0.4002E-2  0.9078     0.4094E-2  0.9136   
  8.849     0.4019E-2  0.9086     0.4112E-2  0.9144   
  8.869     0.4036E-2  0.9094     0.4130E-2  0.9152   
  8.889     0.4053E-2  0.9102     0.4147E-2  0.9160   
  8.909     0.4070E-2  0.9111     0.4165E-2  0.9169   
  8.929     0.4088E-2  0.9119     0.4183E-2  0.9177   
  8.949     0.4105E-2  0.9127     0.4201E-2  0.9186   
  8.969     0.4123E-2  0.9135     0.4220E-2  0.9194   
  8.989     0.4140E-2  0.9143     0.4238E-2  0.9202   
  9.009     0.4158E-2  0.9152     0.4256E-2  0.9211   
  9.029     0.4176E-2  0.9160     0.4275E-2  0.9219   
  9.049     0.4194E-2  0.9168     0.4293E-2  0.9228   
  9.069     0.4212E-2  0.9177     0.4312E-2  0.9237   
  9.089     0.4230E-2  0.9185     0.4331E-2  0.9245   
  9.109     0.4248E-2  0.9194     0.4350E-2  0.9254   
  9.129     0.4266E-2  0.9202     0.4369E-2  0.9263   
  9.149     0.4285E-2  0.9211     0.4388E-2  0.9272   
  9.169     0.4303E-2  0.9220     0.4407E-2  0.9280   
  9.189     0.4321E-2  0.9228     0.4426E-2  0.9289   
  9.209     0.4340E-2  0.9237     0.4445E-2  0.9298   
  9.229     0.4359E-2  0.9246     0.4465E-2  0.9307   
  9.249     0.4377E-2  0.9254     0.4484E-2  0.9316   
  9.269     0.4396E-2  0.9263     0.4504E-2  0.9325   
  9.289     0.4415E-2  0.9272     0.4524E-2  0.9334   
  9.309     0.4434E-2  0.9281     0.4543E-2  0.9343   
  9.329     0.4454E-2  0.9290     0.4563E-2  0.9352   
  9.349     0.4473E-2  0.9299     0.4583E-2  0.9361   
  9.369     0.4492E-2  0.9308     0.4604E-2  0.9370   
  9.389     0.4512E-2  0.9317     0.4624E-2  0.9380   
  9.409     0.4531E-2  0.9326     0.4644E-2  0.9389   
  9.429     0.4551E-2  0.9335     0.4665E-2  0.9398   
  9.449     0.4571E-2  0.9344     0.4685E-2  0.9408   
  9.469     0.4590E-2  0.9353     0.4706E-2  0.9417   
  9.489     0.4610E-2  0.9362     0.4727E-2  0.9426   
  9.510     0.4630E-2  0.9371     0.4748E-2  0.9436   
  9.530     0.4651E-2  0.9381     0.4769E-2  0.9445   
  9.550     0.4671E-2  0.9390     0.4790E-2  0.9455   
  9.570     0.4691E-2  0.9399     0.4811E-2  0.9465   
  9.590     0.4712E-2  0.9409     0.4832E-2  0.9474   
  9.610     0.4732E-2  0.9418     0.4854E-2  0.9484   
  9.630     0.4753E-2  0.9428     0.4875E-2  0.9494   
  9.650     0.4774E-2  0.9437     0.4897E-2  0.9504   
  9.670     0.4795E-2  0.9447     0.4919E-2  0.9513   
  9.690     0.4816E-2  0.9456     0.4941E-2  0.9523   
  9.710     0.4837E-2  0.9466     0.4963E-2  0.9533   
  9.730     0.4858E-2  0.9476     0.4985E-2  0.9543   
  9.750     0.4880E-2  0.9486     0.5008E-2  0.9553   
  9.770     0.4901E-2  0.9495     0.5030E-2  0.9563   
  9.790     0.4923E-2  0.9505     0.5053E-2  0.9573   
  9.810     0.4944E-2  0.9515     0.5075E-2  0.9583   
  9.830     0.4966E-2  0.9525     0.5098E-2  0.9594   
  9.850     0.4988E-2  0.9535     0.5121E-2  0.9604   
  9.870     0.5010E-2  0.9545     0.5144E-2  0.9614   
  9.890     0.5032E-2  0.9555     0.5168E-2  0.9624   
  9.910     0.5055E-2  0.9565     0.5191E-2  0.9635   
  9.930     0.5077E-2  0.9575     0.5214E-2  0.9645   
  9.950     0.5100E-2  0.9585     0.5238E-2  0.9656   
  9.970     0.5122E-2  0.9596     0.5262E-2  0.9666   
  9.990     0.5145E-2  0.9606     0.5286E-2  0.9677   
  10.01     0.5168E-2  0.9616     0.5310E-2  0.9687   
  10.03     0.5191E-2  0.9627     0.5334E-2  0.9698   
  10.05     0.5215E-2  0.9637     0.5358E-2  0.9709   
  10.07     0.5238E-2  0.9648     0.5383E-2  0.9719   
  10.09     0.5261E-2  0.9658     0.5407E-2  0.9730   
  10.11     0.5285E-2  0.9669     0.5432E-2  0.9741   
  10.13     0.5309E-2  0.9679     0.5457E-2  0.9752   
  10.15     0.5333E-2  0.9690     0.5482E-2  0.9763   
  10.17     0.5357E-2  0.9701     0.5507E-2  0.9774   
  10.19     0.5381E-2  0.9711     0.5533E-2  0.9785   
  10.21     0.5405E-2  0.9722     0.5558E-2  0.9796   
  10.23     0.5429E-2  0.9733     0.5584E-2  0.9807   
  10.25     0.5454E-2  0.9744     0.5610E-2  0.9818   
  10.27     0.5479E-2  0.9755     0.5636E-2  0.9830   
  10.29     0.5504E-2  0.9766     0.5662E-2  0.9841   
  10.31     0.5529E-2  0.9777     0.5688E-2  0.9852   
  10.33     0.5554E-2  0.9788     0.5715E-2  0.9864   
  10.35     0.5579E-2  0.9799     0.5741E-2  0.9875   
  10.37     0.5605E-2  0.9810     0.5768E-2  0.9887   
  10.39     0.5630E-2  0.9821     0.5795E-2  0.9898   
  10.41     0.5656E-2  0.9833     0.5822E-2  0.9910   
  10.43     0.5682E-2  0.9844     0.5849E-2  0.9922   
  10.45     0.5708E-2  0.9855     0.5877E-2  0.9933   
  10.47     0.5734E-2  0.9867     0.5905E-2  0.9945   
  10.49     0.5760E-2  0.9878     0.5932E-2  0.9957   
  10.51     0.5787E-2  0.9890     0.5960E-2  0.9969   
  10.53     0.5814E-2  0.9902     0.5989E-2  0.9981   
  10.55     0.5841E-2  0.9913     0.6017E-2  0.9993   
  10.57     0.5868E-2  0.9925     0.6045E-2   1.000   
  10.59     0.5895E-2  0.9937     0.6074E-2   1.002   
  10.61     0.5922E-2  0.9949     0.6103E-2   1.003   
  10.63     0.5950E-2  0.9960     0.6132E-2   1.004   
  10.65     0.5977E-2  0.9972     0.6161E-2   1.005   
  10.67     0.6005E-2  0.9984     0.6191E-2   1.007   
  10.69     0.6033E-2  0.9996     0.6221E-2   1.008   
  10.71     0.6061E-2   1.001     0.6250E-2   1.009   
  10.73     0.6090E-2   1.002     0.6280E-2   1.010   
  10.75     0.6118E-2   1.003     0.6311E-2   1.012   
  10.77     0.6147E-2   1.005     0.6341E-2   1.013   
  10.79     0.6176E-2   1.006     0.6372E-2   1.014   
  10.81     0.6205E-2   1.007     0.6403E-2   1.015   
  10.83     0.6235E-2   1.008     0.6434E-2   1.017   
  10.85     0.6264E-2   1.009     0.6465E-2   1.018   
  10.87     0.6294E-2   1.011     0.6496E-2   1.019   
  10.89     0.6324E-2   1.012     0.6528E-2   1.021   
  10.91     0.6354E-2   1.013     0.6560E-2   1.022   
  10.93     0.6384E-2   1.015     0.6592E-2   1.023   
  10.95     0.6414E-2   1.016     0.6625E-2   1.025   
  10.97     0.6445E-2   1.017     0.6657E-2   1.026   
  10.99     0.6476E-2   1.018     0.6690E-2   1.027   
  11.01     0.6507E-2   1.020     0.6723E-2   1.029   
  11.03     0.6538E-2   1.021     0.6756E-2   1.030   
  11.05     0.6570E-2   1.022     0.6790E-2   1.031   
  11.07     0.6601E-2   1.024     0.6823E-2   1.033   
  11.09     0.6633E-2   1.025     0.6857E-2   1.034   
  11.11     0.6665E-2   1.026     0.6892E-2   1.035   
  11.13     0.6698E-2   1.028     0.6926E-2   1.037   
  11.15     0.6730E-2   1.029     0.6961E-2   1.038   
  11.17     0.6763E-2   1.030     0.6996E-2   1.040   
  11.19     0.6796E-2   1.032     0.7031E-2   1.041   
  11.21     0.6829E-2   1.033     0.7066E-2   1.042   
  11.23     0.6862E-2   1.034     0.7102E-2   1.044   
  11.25     0.6896E-2   1.036     0.7138E-2   1.045   
  11.27     0.6930E-2   1.037     0.7174E-2   1.047   
  11.29     0.6964E-2   1.039     0.7211E-2   1.048   
  11.31     0.6998E-2   1.040     0.7247E-2   1.050   
  11.33     0.7033E-2   1.041     0.7284E-2   1.051   
  11.35     0.7068E-2   1.043     0.7322E-2   1.052   
  11.37     0.7103E-2   1.044     0.7359E-2   1.054   
  11.39     0.7138E-2   1.046     0.7397E-2   1.055   
  11.41     0.7174E-2   1.047     0.7435E-2   1.057   
  11.43     0.7209E-2   1.049     0.7474E-2   1.058   
  11.45     0.7245E-2   1.050     0.7512E-2   1.060   
  11.47     0.7282E-2   1.051     0.7551E-2   1.061   
  11.49     0.7318E-2   1.053     0.7591E-2   1.063   
  11.51     0.7355E-2   1.054     0.7630E-2   1.064   
  11.53     0.7392E-2   1.056     0.7670E-2   1.066   
  11.55     0.7430E-2   1.057     0.7710E-2   1.067   
  11.57     0.7467E-2   1.059     0.7751E-2   1.069   
  11.59     0.7505E-2   1.060     0.7792E-2   1.071   
  11.61     0.7543E-2   1.062     0.7833E-2   1.072   
  11.63     0.7582E-2   1.063     0.7875E-2   1.074   
  11.65     0.7621E-2   1.065     0.7916E-2   1.075   
  11.67     0.7660E-2   1.066     0.7958E-2   1.077   
  11.69     0.7699E-2   1.068     0.8001E-2   1.078   
  11.71     0.7739E-2   1.069     0.8044E-2   1.080   
  11.73     0.7778E-2   1.071     0.8087E-2   1.082   
  11.75     0.7819E-2   1.073     0.8131E-2   1.083   
  11.77     0.7859E-2   1.074     0.8174E-2   1.085   
  11.79     0.7900E-2   1.076     0.8219E-2   1.087   
  11.81     0.7941E-2   1.077     0.8263E-2   1.088   
  11.83     0.7982E-2   1.079     0.8308E-2   1.090   
  11.85     0.8024E-2   1.080     0.8354E-2   1.092   
  11.87     0.8066E-2   1.082     0.8399E-2   1.093   
  11.89     0.8109E-2   1.084     0.8445E-2   1.095   
  11.91     0.8151E-2   1.085     0.8492E-2   1.097   
  11.93     0.8194E-2   1.087     0.8539E-2   1.098   
  11.95     0.8238E-2   1.089     0.8586E-2   1.100   
  11.97     0.8282E-2   1.090     0.8634E-2   1.102   
  11.99     0.8326E-2   1.092     0.8682E-2   1.103   
  12.01     0.8370E-2   1.094     0.8730E-2   1.105   
  12.03     0.8415E-2   1.095     0.8779E-2   1.107   
  12.05     0.8460E-2   1.097     0.8828E-2   1.109   
  12.07     0.8505E-2   1.099     0.8878E-2   1.111   
  12.09     0.8551E-2   1.100     0.8928E-2   1.112   
  12.11     0.8597E-2   1.102     0.8979E-2   1.114   
  12.13     0.8644E-2   1.104     0.9030E-2   1.116   
  12.15     0.8691E-2   1.106     0.9082E-2   1.118   
  12.17     0.8738E-2   1.107     0.9134E-2   1.120   
  12.19     0.8786E-2   1.109     0.9186E-2   1.121   
  12.21     0.8834E-2   1.111     0.9239E-2   1.123   
  12.23     0.8882E-2   1.113     0.9292E-2   1.125   
  12.25     0.8931E-2   1.114     0.9346E-2   1.127   
  12.27     0.8981E-2   1.116     0.9401E-2   1.129   
  12.29     0.9030E-2   1.118     0.9456E-2   1.131   
  12.31     0.9080E-2   1.120     0.9511E-2   1.133   
  12.33     0.9131E-2   1.122     0.9567E-2   1.134   
  12.35     0.9182E-2   1.123     0.9623E-2   1.136   
  12.37     0.9233E-2   1.125     0.9680E-2   1.138   
  12.39     0.9285E-2   1.127     0.9738E-2   1.140   
  12.41     0.9338E-2   1.129     0.9796E-2   1.142   
  12.43     0.9390E-2   1.131     0.9855E-2   1.144   
  12.45     0.9443E-2   1.133     0.9914E-2   1.146   
  12.47     0.9497E-2   1.135     0.9973E-2   1.148   
  12.49     0.9551E-2   1.137     0.1003E-1   1.150   
  12.51     0.9606E-2   1.138     0.1009E-1   1.152   
  12.53     0.9661E-2   1.140     0.1016E-1   1.154   
  12.55     0.9716E-2   1.142     0.1022E-1   1.156   
  12.57     0.9772E-2   1.144     0.1028E-1   1.158   
  12.59     0.9829E-2   1.146     0.1034E-1   1.160   
  12.61     0.9886E-2   1.148     0.1041E-1   1.162   
  12.63     0.9943E-2   1.150     0.1047E-1   1.165   
  12.65     0.1000E-1   1.152     0.1054E-1   1.167   
  12.67     0.1006E-1   1.154     0.1060E-1   1.169   
  12.69     0.1012E-1   1.156     0.1067E-1   1.171   
  12.71     0.1018E-1   1.158     0.1074E-1   1.173   
  12.73     0.1024E-1   1.160     0.1081E-1   1.175   
  12.75     0.1030E-1   1.162     0.1088E-1   1.177   
  12.77     0.1036E-1   1.164     0.1095E-1   1.180   
  12.79     0.1042E-1   1.166     0.1102E-1   1.182   
  12.81     0.1049E-1   1.169     0.1109E-1   1.184   
  12.83     0.1055E-1   1.171     0.1116E-1   1.186   
  12.85     0.1061E-1   1.173     0.1123E-1   1.188   
  12.87     0.1068E-1   1.175     0.1130E-1   1.191   
  12.89     0.1074E-1   1.177     0.1138E-1   1.193   
  12.91     0.1081E-1   1.179     0.1145E-1   1.195   
  12.93     0.1087E-1   1.181     0.1153E-1   1.198   
  12.95     0.1094E-1   1.184     0.1161E-1   1.200   
  12.97     0.1101E-1   1.186     0.1168E-1   1.202   
  12.99     0.1108E-1   1.188     0.1176E-1   1.205   
  13.01     0.1114E-1   1.190     0.1184E-1   1.207   
  13.03     0.1121E-1   1.192     0.1192E-1   1.209   
  13.05     0.1128E-1   1.195     0.1200E-1   1.212   
  13.07     0.1135E-1   1.197     0.1209E-1   1.214   
  13.09     0.1143E-1   1.199     0.1217E-1   1.216   
  13.11     0.1150E-1   1.202     0.1225E-1   1.219   
  13.13     0.1157E-1   1.204     0.1234E-1   1.221   
  13.15     0.1164E-1   1.206     0.1242E-1   1.224   
  13.17     0.1172E-1   1.208     0.1251E-1   1.226   
  13.19     0.1179E-1   1.211     0.1260E-1   1.229   
  13.21     0.1187E-1   1.213     0.1269E-1   1.231   
  13.23     0.1195E-1   1.216     0.1278E-1   1.234   
  13.25     0.1202E-1   1.218     0.1287E-1   1.236   
  13.27     0.1210E-1   1.220     0.1296E-1   1.239   
  13.29     0.1218E-1   1.223     0.1306E-1   1.242   
  13.31     0.1226E-1   1.225     0.1315E-1   1.244   
  13.33     0.1234E-1   1.228     0.1325E-1   1.247   
  13.35     0.1242E-1   1.230     0.1335E-1   1.250   
  13.37     0.1251E-1   1.233     0.1345E-1   1.252   
  13.39     0.1259E-1   1.235     0.1355E-1   1.255   
  13.41     0.1268E-1   1.238     0.1365E-1   1.258   
  13.43     0.1276E-1   1.240     0.1375E-1   1.260   
  13.45     0.1285E-1   1.243     0.1386E-1   1.263   
  13.47     0.1293E-1   1.245     0.1396E-1   1.266   
  13.49     0.1302E-1   1.248     0.1407E-1   1.269   
  13.51     0.1311E-1   1.251     0.1418E-1   1.272   
  13.53     0.1320E-1   1.253     0.1429E-1   1.274   
  13.55     0.1329E-1   1.256     0.1440E-1   1.277   
  13.57     0.1339E-1   1.259     0.1452E-1   1.280   
  13.59     0.1348E-1   1.261     0.1463E-1   1.283   
  13.61     0.1357E-1   1.264     0.1475E-1   1.286   
  13.63363    0.01367    1.26673    0.01487    1.28905
  13.65365    0.01377    1.26947    0.01499    1.29204
  13.67367    0.01386    1.27224    0.01511    1.29504
  13.69369    0.01396    1.27502    0.01524    1.29808
  13.71371    0.01406    1.27782    0.01537    1.30114
  13.73373    0.01416    1.28065    0.01550    1.30423
  13.75375    0.01427    1.28349    0.01563    1.30734
  13.77377    0.01437    1.28635    0.01576    1.31048
  13.79379    0.01448    1.28924    0.01590    1.31364
  13.81381    0.01458    1.29215    0.01603    1.31683
  13.83383    0.01469    1.29507    0.01617    1.32005
  13.85385    0.01480    1.29802    0.01632    1.32330
  13.87387    0.01491    1.30100    0.01646    1.32658
  13.89389    0.01502    1.30399    0.01661    1.32988
  13.91391    0.01514    1.30701    0.01676    1.33322
  13.93393    0.01525    1.31004    0.01691    1.33658
  13.95395    0.01537    1.31311    0.01707    1.33998
  13.97397    0.01548    1.31619    0.01723    1.34341
  13.99399    0.01560    1.31930    0.01739    1.34687
  14.01401    0.01572    1.32244    0.01755    1.35036
  14.03403    0.01585    1.32559    0.01772    1.35389
  14.05405    0.01597    1.32877    0.01789    1.35745
  14.07407    0.01610    1.33198    0.01807    1.36104
  14.09409    0.01622    1.33521    0.01825    1.36467
  14.11411    0.01635    1.33847    0.01843    1.36834
  14.13413    0.01648    1.34176    0.01862    1.37204
  14.15415    0.01662    1.34507    0.01881    1.37578
  14.17417    0.01675    1.34840    0.01900    1.37956
  14.19419    0.01689    1.35177    0.01920    1.38337
  14.21421    0.01703    1.35516    0.01941    1.38723
  14.23423    0.01717    1.35858    0.01962    1.39113
  14.25425    0.01731    1.36203    0.01983    1.39507
  14.27427    0.01746    1.36550    0.02005    1.39905
  14.29429    0.01760    1.36901    0.02027    1.40307
  14.31431    0.01775    1.37254    0.02050    1.40715
  14.33433    0.01790    1.37611    0.02074    1.41127
  14.35435    0.01806    1.37971    0.02098    1.41543
  14.37437    0.01821    1.38333    0.02123    1.41964
  14.39439    0.01837    1.38699    0.02149    1.42391
  14.41441    0.01853    1.39068    0.02175    1.42822
  14.43443    0.01869    1.39440    0.02202    1.43259
  14.45445    0.01886    1.39816    0.02230    1.43701
  14.47447    0.01903    1.40194    0.02259    1.44149
  14.49449    0.01920    1.40577    0.02288    1.44603
  14.51451    0.01937    1.40962    0.02319    1.45062
  14.53453    0.01955    1.41351    0.02350    1.45528
  14.55455    0.01973    1.41744    0.02383    1.46000
  14.57457    0.01991    1.42140    0.02417    1.46478
  14.59459    0.02010    1.42541    0.02452    1.46963
  14.61461    0.02029    1.42944    0.02488    1.47455
  14.63463    0.02048    1.43352    0.02526    1.47955
  14.65465    0.02067    1.43763    0.02565    1.48462
  14.67467    0.02087    1.44178    0.02605    1.48977
  14.69469    0.02108    1.44598    0.02648    1.49499
  14.71471    0.02128    1.45021    0.02692    1.50031
  14.73473    0.02149    1.45448    0.02738    1.50571
  14.75475    0.02170    1.45880    0.02786    1.51120
  14.77477    0.02192    1.46316    0.02837    1.51679
  14.79480    0.02214    1.46757    0.02890    1.52248
  14.81481    0.02237    1.47202    0.02945    1.52827
  14.83483    0.02260    1.47651    0.03004    1.53417
  14.85485    0.02283    1.48105    0.03066    1.54019
  14.87487    0.02307    1.48564    0.03131    1.54633
  14.89489    0.02332    1.49027    0.03200    1.55260
  14.91491    0.02356    1.49496    0.03274    1.55900
  14.93493    0.02382    1.49969    0.03352    1.56555
  14.95495    0.02408    1.50448    0.03435    1.57225
  14.97497    0.02434    1.50931    0.03525    1.57911
  14.99499    0.02461    1.51420    0.03620    1.58614
  15.01501    0.02489    1.51915    0.03723    1.59336
  15.03503    0.02517    1.52415    0.03834    1.60077
  15.05505    0.02545    1.52921    0.03955    1.60840
  15.07508    0.02575    1.53432    0.04086    1.61625
  15.09509    0.02605    1.53949    0.04229    1.62435
  15.11511    0.02635    1.54473    0.04386    1.63271
  15.13513    0.02667    1.55002    0.04558    1.64136
  15.15515    0.02699    1.55538    0.04749    1.65032
  15.17517    0.02732    1.56081    0.04962    1.65963
  15.19519    0.02765    1.56629    0.05200    1.66931
  15.21521    0.02800    1.57185    0.05468    1.67939
  15.23524    0.02835    1.57748    0.05771    1.68993
  15.25525    0.02872    1.58318    0.06117    1.70097
  15.27527    0.02909    1.58894    0.06515    1.71255
  15.29529    0.02947    1.59479    0.06975    1.72474
  15.31531    0.02986    1.60071    0.07512    1.73759
  15.33534    0.03026    1.60671    0.08146    1.75117
  15.35535    0.03067    1.61279    0.08900    1.76552
  15.37537    0.03110    1.61896    0.09807    1.78070
  15.39540    0.03153    1.62520    0.10908    1.79672
  15.41541    0.03198    1.63154    0.12260    1.81352
  15.43543    0.03245    1.63797    0.13937    1.83092
  15.45545    0.03292    1.64449    0.16036    1.84850
  15.47547    0.03341    1.65110    0.18680    1.86540
  15.49549    0.03392    1.65781    0.22008    1.88001
  15.51552    0.03444    1.66463    0.26154    1.88951
  15.53553    0.03498    1.67155    0.31154    1.88931
  15.55556    0.03553    1.67857    0.36784    1.87298
  15.57557    0.03611    1.68571    0.42305    1.83408
  15.59559    0.03670    1.69297    0.46381    1.77104
  15.61561    0.03732    1.70034    0.47585    1.69303
  15.63563    0.03796    1.70784    0.45440    1.61844
  15.65565    0.03862    1.71546    0.40846    1.56350
  15.67568    0.03931    1.72322    0.35306    1.53341
  15.69569    0.04003    1.73111    0.29975    1.52425
  15.71572    0.04077    1.73915    0.25395    1.52919
  15.73573    0.04155    1.74733    0.21678    1.54237
  15.75575    0.04235    1.75567    0.18741    1.55983
  15.77578    0.04320    1.76417    0.16443    1.57921
  15.79579    0.04408    1.77284    0.14650    1.59921
  15.81581    0.04500    1.78169    0.13248    1.61916
  15.83584    0.04597    1.79071    0.12148    1.63874
  15.85585    0.04699    1.79993    0.11283    1.65782
  15.87588    0.04805    1.80935    0.10604    1.67638
  15.89590    0.04918    1.81898    0.10072    1.69447
  15.91591    0.05037    1.82883    0.09659    1.71215
  15.93594    0.05163    1.83892    0.09344    1.72948
  15.95596    0.05296    1.84925    0.09111    1.74655
  15.97597    0.05438    1.85985    0.08948    1.76343
  15.99600    0.05588    1.87072    0.08847    1.78019
  16.01601    0.05750    1.88188    0.08800    1.79691
  16.03603    0.05922    1.89335    0.08804    1.81365
  16.05606    0.06108    1.90515    0.08856    1.83048
  16.07607    0.06308    1.91731    0.08954    1.84747
  16.09610    0.06525    1.92985    0.09100    1.86469
  16.11612    0.06760    1.94279    0.09296    1.88219
  16.13614    0.07017    1.95617    0.09544    1.90006
  16.15616    0.07300    1.97002    0.09849    1.91836
  16.17618    0.07611    1.98439    0.10221    1.93716
  16.19619    0.07956    1.99930    0.10667    1.95655
  16.21622    0.08341    2.01483    0.11202    1.97661
  16.23623    0.08773    2.03100    0.11843    1.99741
  16.25626    0.09263    2.04789    0.12614    2.01905
  16.27628    0.09821    2.06556    0.13546    2.04157
  16.29630    0.10464    2.08408    0.14680    2.06501
  16.31632    0.11211    2.10352    0.16071    2.08936
  16.33634    0.12088    2.12394    0.17792    2.11444
  16.35636    0.13127    2.14540    0.19939    2.13989
  16.37638    0.14375    2.16792    0.22632    2.16490
  16.39639    0.15888    2.19143    0.26012    2.18795
  16.41641    0.17746    2.21575    0.30213    2.20634
  16.43644    0.20048    2.24043    0.35286    2.21561
  16.45646    0.22921    2.26455    0.41029    2.20948
  16.47648    0.26508    2.28640    0.46748    2.18140
  16.49650    0.30935    2.30296    0.51139    2.12931
  16.51652    0.36220    2.30942    0.52753    2.06159
  16.53654    0.42086    2.29922    0.51022    1.99633
  16.55655    0.47717    2.26621    0.46771    1.95033
  16.57657    0.51720    2.20996    0.41498    1.92963
  16.59660    0.52733    2.14119    0.36401    1.93074
  16.61662    0.50462    2.07881    0.32063    1.94692
  16.63664    0.45948    2.03793    0.28619    1.97223
  16.65666    0.40694    2.02233    0.25998    2.00265
  16.67668    0.35779    2.02741    0.24067    2.03580
  16.69670    0.31678    2.04639    0.22694    2.07037
  16.71671    0.28472    2.07368    0.21770    2.10573
  16.73673    0.26070    2.10562    0.21214    2.14163
  16.75676    0.24334    2.14010    0.20968    2.17804
  16.77678    0.23139    2.17599    0.20992    2.21503
  16.79680    0.22383    2.21275    0.21263    2.25276
  16.81682    0.21990    2.25020    0.21771    2.29140
  16.83684    0.21906    2.28833    0.22516    2.33119
  16.85686    0.22099    2.32727    0.23513    2.37236
  16.87688    0.22547    2.36719    0.24785    2.41514
  16.89689    0.23247    2.40832    0.26373    2.45979
  16.91692    0.24204    2.45089    0.28331    2.50654
  16.93694    0.25436    2.49516    0.30736    2.55558
  16.95695    0.26975    2.54143    0.33694    2.60703
  16.97698    0.28868    2.58998    0.37343    2.66081
  16.99700    0.31178    2.64108    0.41869    2.71649
  17.01702    0.33995    2.69498    0.47511    2.77303
  17.03704    0.37436    2.75183    0.54560    2.82819
  17.05706    0.41659    2.81161    0.63332    2.87781
  17.07708    0.46870    2.87394    0.74063    2.91470
  17.09710    0.53332    2.93777    0.86662    2.92783
  17.11712    0.61363    3.00090    1.00266    2.90373
  17.13714    0.71301    3.05924    1.12827    2.83314
  17.15716    0.83394    3.10594    1.21469    2.72338
  17.17718    0.97590    3.13126    1.24252    2.60426
  17.19720    1.13250    3.12457    1.21944    2.51299
  17.21722    1.29108    3.07917    1.17519    2.46993
  17.23724    1.43742    2.99590    1.14075    2.47180
  17.25726    1.56048    2.88015    1.13556    2.50172
  17.27728    1.64944    2.73867    1.16686    2.53931
  17.29730    1.69279    2.58650    1.23227    2.56523
  17.31732    1.69145    2.44913    1.32117    2.56437
  17.33734    1.66733    2.34509    1.41797    2.52987
  17.35736    1.64833    2.26919    1.50928    2.46357
  17.37738    1.64634    2.19755    1.58732    2.36859
  17.39740    1.64915    2.10758    1.64255    2.24533
  17.41742    1.63071    1.99695    1.65927    2.10088
  17.43744    1.57411    1.88679    1.62786    1.95608
  17.45746    1.48705    1.80265    1.55669    1.83295
  17.47748    1.39237    1.75253    1.46287    1.73872
  17.49750    1.30674    1.72499    1.35566    1.66990
  17.51752    1.22977    1.70396    1.23633    1.62662
  17.53754    1.14947    1.68393    1.10963    1.61481
  17.55756    1.05685    1.67345    0.98691    1.63703
  17.57758    0.95543    1.68472    0.87927    1.68816
  17.59760    0.85668    1.72216    0.79232    1.75933
  17.61762    0.77038    1.78163    0.72680    1.84250
  17.63764    0.70087    1.85594    0.68106    1.93212
  17.65766    0.64835    1.93896    0.65298    2.02492
  17.67768    0.61121    2.02668    0.64095    2.11912
  17.69770    0.58755    2.11689    0.64415    2.21368
  17.71772    0.57581    2.20861    0.66273    2.30773
  17.73774    0.57500    2.30153    0.69777    2.39990
  17.75776    0.58476    2.39569    0.75113    2.48770
  17.77778    0.60537    2.49125    0.82496    2.56652
  17.79780    0.63776    2.58817    0.92031    2.62848
  17.81782    0.68351    2.68603    1.03409    2.66193
  17.83784    0.74484    2.78358    1.15432    2.65383
  17.85786    0.82435    2.87812    1.25681    2.59807
  17.87788    0.92425    2.96487    1.31203    2.50798
  17.89790    1.04461    3.03657    1.30485    2.41815
  17.91792    1.18098    3.08495    1.24824    2.36486
  17.93794    1.32340    3.10500    1.17242    2.36462
  17.95796    1.46081    3.09953    1.10441    2.41328
  17.97798    1.58903    3.07636    1.05941    2.49815
  17.99800    1.71004    3.03798    1.04347    2.60716
  18.01802    1.81975    2.98015    1.05853    2.73175
  18.03804    1.90294    2.90633    1.10589    2.86629
  18.05806    1.94898    2.83919    1.18801    3.00653
  18.07808    1.97131    2.80813    1.30918    3.14792
  18.09810    2.00401    2.82513    1.47567    3.28369
  18.11812    2.08168    2.87716    1.69468    3.40244
  18.13814    2.22618    2.93414    1.97166    3.48569
  18.15816    2.44274    2.95755    2.30450    3.50690
  18.17818    2.71685    2.90666    2.67546    3.43589
  18.19820    3.01171    2.74945    3.04817    3.25163
  18.21822    3.27560    2.47730    3.37815    2.95487
  18.23824    3.46068    2.10856    3.62966    2.56463
  18.25826    3.53316    1.67600    3.77624    2.10406
  18.27828    3.46870    1.22232    3.78967    1.60386
  18.29830    3.25973    0.80678    3.64958    1.11837
  18.31832    2.93586    0.49252    3.37281    0.71789
  18.33834    2.56008    0.31314    3.02020    0.44993
  18.35836    2.19525    0.25913    2.66339    0.31286
  18.37838    1.87915    0.29644    2.34842    0.26869
  18.39840    1.62431    0.38934    2.08562    0.27287
  18.41842    1.42874    0.51086    1.86084    0.29657
  18.43844    1.28534    0.64317    1.65563    0.33335
  18.45846    1.18642    0.77458    1.46273    0.38968
  18.47848    1.12496    0.89634    1.28667    0.46990
  18.49850    1.09365    1.00032    1.13431    0.57057
  18.51852    1.08233    1.07890    1.00839    0.68425
  18.53854    1.07593    1.12810    0.90766    0.80409
  18.55856    1.05676    1.15340    0.82894    0.92546
  18.57858    1.01376    1.17153    0.76880    1.04586
  18.59860    0.95017    1.20159    0.72428    1.16424
  18.61862    0.87925    1.25357    0.69316    1.28036
  18.63864    0.81374    1.32666    0.67393    1.39450
  18.65866    0.76075    1.41512    0.66576    1.50713
  18.67868    0.72249    1.51323    0.66843    1.61878
  18.69870    0.69877    1.61705    0.68238    1.72991
  18.71872    0.68877    1.72438    0.70866    1.84069
  18.73874    0.69188    1.83422    0.74906    1.95082
  18.75876    0.70809    1.94628    0.80613    2.05907
  18.77878    0.73813    2.06049    0.88298    2.16262
  18.79880    0.78360    2.17679    0.98273    2.25607
  18.81882    0.84704    2.29467    1.10674    2.33036
  18.83884    0.93207    2.41268    1.25105    2.37284
  18.85886    1.04332    2.52771    1.40163    2.37116
  18.87888    1.18584    2.63378    1.53335    2.32355
  18.89890    1.36378    2.72099    1.62184    2.24964
  18.91892    1.57744    2.77516    1.66437    2.18471
  18.93894    1.81995    2.78019    1.68605    2.15522
  18.95896    2.07687    2.72289    1.72214    2.16138
  18.97898    2.32937    2.59582    1.79782    2.18079
  18.99900    2.55592    2.39616    1.91934    2.18033
  19.01902    2.73053    2.12818    2.07124    2.12725
  19.03904    2.82684    1.80865    2.21750    2.00295
  19.05906    2.82563    1.46656    2.31476    1.81726
  19.07908    2.72107    1.14003    2.33680    1.60722
  19.09910    2.52697    0.86814    2.28812    1.41485
  19.11912    2.27419    0.67769    2.19455    1.26610
  19.13914    1.99965    0.57715    2.08735    1.16593
  19.15916    1.73646    0.55837    1.99160    1.10049
  19.17918    1.50701    0.60210    1.91518    1.04411
  19.19920    1.32097    0.68629    1.84367    0.97505
  19.21922    1.17869    0.79247    1.75037    0.89271
  19.23924    1.07626    0.90744    1.61886    0.81974
  19.25926    1.00886    1.02194    1.45710    0.78318
  19.27928    0.97185    1.12866    1.28844    0.79451
  19.29930    0.96014    1.22036    1.13391    0.84782
  19.31932    0.96602    1.28955    1.00403    0.92990
  19.33934    0.97672    1.33103    0.90070    1.02861
  19.35936    0.97540    1.34757    0.82165    1.13556
  19.37938    0.94909    1.35359    0.76342    1.24583
  19.39940    0.89806    1.36870    0.72290    1.35692
  19.41942    0.83452    1.40543    0.69776    1.46764
  19.43944    0.77235    1.46497    0.68656    1.57762
  19.45946    0.72021    1.54203    0.68878    1.68675
  19.47948    0.68135    1.63044    0.70474    1.79485
  19.49950    0.65602    1.72570    0.73564    1.90134
  19.51952    0.64345    1.82511    0.78351    2.00470
  19.53954    0.64291    1.92731    0.85099    2.10176
  19.55956    0.65414    2.03176    0.94058    2.18665
  19.57958    0.67755    2.13825    1.05271    2.24975
  19.59960    0.71431    2.24664    1.18191    2.27802
  19.61962    0.76646    2.35650    1.31205    2.25945
  19.63964    0.83699    2.46663    1.41618    2.19398
  19.65966    0.92983    2.57444    1.46974    2.10344
  19.67968    1.04955    2.67495    1.47092    2.02357
  19.69970    1.20021    2.75954    1.44383    1.97911
  19.71972    1.38298    2.81524    1.41874    1.96943
  19.73974    1.59250    2.82587    1.41286    1.97605
  19.75976    1.81466    2.77635    1.42506    1.97787
  19.77978    2.02813    2.65718    1.44152    1.96341
  19.79980    2.20608    2.46578    1.44719    1.93468
  19.81982    2.31474    2.21099    1.43419    1.90087
  19.83984    2.32113    1.92474    1.40004    1.87151
  19.85986    2.21579    1.66057    1.34536    1.85775
  19.87988    2.02517    1.46832    1.27813    1.87161
  19.89990    1.79678    1.36998    1.21408    1.91845
  19.91992    1.57397    1.35772    1.16899    1.99334
  19.93994    1.38224    1.40862    1.15309    2.08491
  19.95996    1.23047    1.49909    1.17087    2.17969
  19.97998    1.11800    1.61137    1.22217    2.26314
  20.00000    1.04078    1.73375    1.30104    2.31936
# 
# 03/01/2017 at 15:53 YAMBO @ anomaly [start]
# 03/01/2017 at 15:53                 [end]
#  
# Timing   [Min/Max/Average]: 01s/01s/01s
#
# .-Input file : yambo.in
# | optics                       # [R OPT] Optics
# | bse                          # [R BSE] Bethe Salpeter Equation.
# | bsk                          # [R BSK] Bethe Salpeter Equation kernel
# | bss                          # [R BSS] Bethe Salpeter Equation solver
# | BoseTemp= 0.000000     eV    # Bosonic Temperature
# | FFTGvecs=  9939        RL    # [FFT] Plane-waves
# | X_Threads= 1                 # [OPENMP/X] Number of threads for response functions
# | DIP_Threads= 1               # [OPENMP/X] Number of threads for dipoles
# | NonPDirs= "XYZ"              # [X/BSS] Non periodic chartesian directions (X,Y,Z,XY...)
# | BSEmod= "retarded"           # [BSE] resonant/retarded/coupling
# | BSKmod= "Hartree"            # [BSE] IP/Hartree/HF/ALDA/SEX/BSfxc
# | BSSmod= "d"                  # [BSS] (h)aydock/(d)iagonalization/(i)nversion/(t)ddft`
# | BSENGexx=  9045        RL    # [BSK] Exchange components
# | % KfnQP_E
# |  7.600000 | 1.000000 | 1.000000 |        # [EXTQP BSK BSS] E parameters  (c/v) eV|adim|adim
# | %
# | % BEnRange
# |   0.00000 | 20.00000 | eV    # [BSS] Energy range
# | %
# | % BDmRange
# |   0.10000 |  0.10000 | eV    # [BSS] Damping range
# | %
# | BEnSteps= 1000               # [BSS] Energy steps
# | % BLongDir
# | 0.1000E-4 | 0.000    | 0.000    |        # [BSS] [cc] Electric Field
# | %
# | % BSEBands
# |    1 | 200 |                 # [BSK] Bands range
# | %
