#                                                           
#  ____  ____     _       ____    ____  ______      ___     
# |_  _||_  _|   / \     |_   \  /   _||_   _ \   ."   `.   
#   \ \  / /    / _ \      |   \/   |    | |_) | /  .-.  \  
#    \ \/ /    / ___ \     | |\  /| |    |  __". | |   | |  
#    _|  |_  _/ /   \ \_  _| |_\/_| |_  _| |__) |\  `-"  /  
#   |______||____| |____||_____||_____||_______/  `.___."   
#                                                           
#                                                           
#                                                           
#        Version 4.2.0 Revision 14319 Hash 8432f48          
#                   MPI+SLK+OpenMP Build                    
#                http://www.yambo-code.org                  
#
# EELS @ Q(1)  [q->0 direction]:0.1000E-4  0.000     0.000   
#
#
# - Energies      are Teter 93(XC)
# - Wavefunctions are Teter 93(XC)
#
# - The Green`s function is Retarded -
# - Using the Length Gauge -
# - [r,Vnl] *is* included -
#
#   BSK|Identifier              :3730
#      |Dimension               :199
#      |Bands                   :1 - 200
#      |Exchange           [res]: yes
#      |Correlation        [res]: no
#      |Kernel`s coupling       : no
#      |Exchange           [cpl]: no
#      |Correlation        [cpl]: no
#      |W interaction is bare   : no
#      |ALDA kernel in R-space  : yes
#      |RL vectors    [exchange]:9045
#      |E/h energy range    [ev]:-1.000000 - -1.000000
#      |Coupling range     [o/o]: 100.0000 -  100.0000
#
#  E/ev[1]    EEL-Im[2]  EEL-Re[3]  EELo-Im[4] EELo-Re[5]
#
  0.000000  -0.000000  -0.987977  -0.000000  -0.983473
 0.1502E-1  0.3095E-6  -.9880     0.7386E-6  -.9835   
 0.3003E-1  0.6190E-6  -.9880     0.1477E-5  -.9835   
 0.4505E-1  0.9285E-6  -.9880     0.2216E-5  -.9835   
 0.6006E-1  0.1238E-5  -.9880     0.2955E-5  -.9835   
 0.7508E-1  0.1548E-5  -.9880     0.3694E-5  -.9835   
 0.9009E-1  0.1857E-5  -.9880     0.4433E-5  -.9835   
 0.1051     0.2167E-5  -.9880     0.5172E-5  -.9835   
 0.1201     0.2477E-5  -.9880     0.5912E-5  -.9835   
 0.1351     0.2787E-5  -.9880     0.6651E-5  -.9835   
 0.1502     0.3096E-5  -.9880     0.7392E-5  -.9835   
 0.1652     0.3406E-5  -.9880     0.8132E-5  -.9835   
 0.1802     0.3716E-5  -.9880     0.8872E-5  -.9835   
 0.1952     0.4026E-5  -.9880     0.9613E-5  -.9835   
 0.2102     0.4337E-5  -.9880     0.1035E-4  -.9835   
 0.2252     0.4647E-5  -.9880     0.1110E-4  -.9835   
 0.2402     0.4957E-5  -.9880     0.1184E-4  -.9835   
 0.2553     0.5268E-5  -.9880     0.1258E-4  -.9835   
 0.2703     0.5579E-5  -.9880     0.1332E-4  -.9835   
 0.2853     0.5890E-5  -.9880     0.1407E-4  -.9835   
 0.3003     0.6201E-5  -.9880     0.1481E-4  -.9835   
 0.3153     0.6512E-5  -.9880     0.1556E-4  -.9834   
 0.3303     0.6823E-5  -.9880     0.1630E-4  -.9834   
 0.3453     0.7135E-5  -.9880     0.1705E-4  -.9834   
 0.3604     0.7446E-5  -.9880     0.1780E-4  -.9834   
 0.3754     0.7758E-5  -.9880     0.1854E-4  -.9834   
 0.3904     0.8070E-5  -.9880     0.1929E-4  -.9834   
 0.4054     0.8383E-5  -.9880     0.2004E-4  -.9834   
 0.4204     0.8695E-5  -.9880     0.2079E-4  -.9834   
 0.4354     0.9008E-5  -.9880     0.2154E-4  -.9834   
 0.4505     0.9321E-5  -.9880     0.2230E-4  -.9834   
 0.4655     0.9634E-5  -.9880     0.2305E-4  -.9834   
 0.4805     0.9948E-5  -.9880     0.2380E-4  -.9834   
 0.4955     0.1026E-4  -.9880     0.2456E-4  -.9834   
 0.5105     0.1058E-4  -.9880     0.2531E-4  -.9834   
 0.5255     0.1089E-4  -.9879     0.2607E-4  -.9834   
 0.5405     0.1120E-4  -.9879     0.2683E-4  -.9834   
 0.5556     0.1152E-4  -.9879     0.2759E-4  -.9834   
 0.5706     0.1183E-4  -.9879     0.2835E-4  -.9834   
 0.5856     0.1215E-4  -.9879     0.2911E-4  -.9834   
 0.6006     0.1247E-4  -.9879     0.2987E-4  -.9834   
 0.6156     0.1278E-4  -.9879     0.3063E-4  -.9834   
 0.6306     0.1310E-4  -.9879     0.3140E-4  -.9834   
 0.6456     0.1341E-4  -.9879     0.3217E-4  -.9834   
 0.6607     0.1373E-4  -.9879     0.3293E-4  -.9834   
 0.6757     0.1405E-4  -.9879     0.3370E-4  -.9834   
 0.6907     0.1437E-4  -.9879     0.3447E-4  -.9834   
 0.7057     0.1469E-4  -.9879     0.3524E-4  -.9833   
 0.7207     0.1500E-4  -.9879     0.3602E-4  -.9833   
 0.7357     0.1532E-4  -.9879     0.3679E-4  -.9833   
 0.7508     0.1564E-4  -.9879     0.3757E-4  -.9833   
 0.7658     0.1596E-4  -.9879     0.3835E-4  -.9833   
 0.7808     0.1628E-4  -.9879     0.3913E-4  -.9833   
 0.7958     0.1660E-4  -.9879     0.3991E-4  -.9833   
 0.8108     0.1692E-4  -.9879     0.4069E-4  -.9833   
 0.8258     0.1725E-4  -.9879     0.4148E-4  -.9833   
 0.8408     0.1757E-4  -.9879     0.4226E-4  -.9833   
 0.8559     0.1789E-4  -.9879     0.4305E-4  -.9833   
 0.8709     0.1821E-4  -.9879     0.4384E-4  -.9833   
 0.8859     0.1854E-4  -.9879     0.4463E-4  -.9833   
 0.9009     0.1886E-4  -.9879     0.4542E-4  -.9833   
 0.9159     0.1918E-4  -.9879     0.4622E-4  -.9833   
 0.9309     0.1951E-4  -.9879     0.4702E-4  -.9833   
 0.9459     0.1983E-4  -.9879     0.4782E-4  -.9833   
 0.9610     0.2016E-4  -.9879     0.4862E-4  -.9832   
 0.9760     0.2049E-4  -.9879     0.4942E-4  -.9832   
 0.9910     0.2081E-4  -.9879     0.5023E-4  -.9832   
  1.006     0.2114E-4  -.9879     0.5104E-4  -.9832   
  1.021     0.2147E-4  -.9879     0.5185E-4  -.9832   
  1.036     0.2180E-4  -.9879     0.5266E-4  -.9832   
  1.051     0.2213E-4  -.9879     0.5347E-4  -.9832   
  1.066     0.2246E-4  -.9879     0.5429E-4  -.9832   
  1.081     0.2279E-4  -.9879     0.5511E-4  -.9832   
  1.096     0.2312E-4  -.9879     0.5593E-4  -.9832   
  1.111     0.2345E-4  -.9878     0.5676E-4  -.9832   
  1.126     0.2378E-4  -.9878     0.5758E-4  -.9832   
  1.141     0.2411E-4  -.9878     0.5841E-4  -.9831   
  1.156     0.2445E-4  -.9878     0.5924E-4  -.9831   
  1.171     0.2478E-4  -.9878     0.6008E-4  -.9831   
  1.186     0.2512E-4  -.9878     0.6091E-4  -.9831   
  1.201     0.2545E-4  -.9878     0.6175E-4  -.9831   
  1.216     0.2579E-4  -.9878     0.6259E-4  -.9831   
  1.231     0.2613E-4  -.9878     0.6344E-4  -.9831   
  1.246     0.2646E-4  -.9878     0.6429E-4  -.9831   
  1.261     0.2680E-4  -.9878     0.6514E-4  -.9831   
  1.276     0.2714E-4  -.9878     0.6599E-4  -.9831   
  1.291     0.2748E-4  -.9878     0.6685E-4  -.9831   
  1.306     0.2782E-4  -.9878     0.6771E-4  -.9830   
  1.321     0.2816E-4  -.9878     0.6857E-4  -.9830   
  1.336     0.2850E-4  -.9878     0.6943E-4  -.9830   
  1.351     0.2885E-4  -.9878     0.7030E-4  -.9830   
  1.366     0.2919E-4  -.9878     0.7117E-4  -.9830   
  1.381     0.2954E-4  -.9878     0.7205E-4  -.9830   
  1.396     0.2988E-4  -.9878     0.7292E-4  -.9830   
  1.411     0.3023E-4  -.9878     0.7381E-4  -.9830   
  1.426     0.3057E-4  -.9878     0.7469E-4  -.9830   
  1.441     0.3092E-4  -.9878     0.7558E-4  -.9829   
  1.456     0.3127E-4  -.9878     0.7647E-4  -.9829   
  1.471     0.3162E-4  -.9877     0.7736E-4  -.9829   
  1.486     0.3197E-4  -.9877     0.7826E-4  -.9829   
  1.502     0.3232E-4  -.9877     0.7916E-4  -.9829   
  1.517     0.3267E-4  -.9877     0.8007E-4  -.9829   
  1.532     0.3302E-4  -.9877     0.8098E-4  -.9829   
  1.547     0.3338E-4  -.9877     0.8189E-4  -.9829   
  1.562     0.3373E-4  -.9877     0.8280E-4  -.9829   
  1.577     0.3409E-4  -.9877     0.8372E-4  -.9828   
  1.592     0.3445E-4  -.9877     0.8465E-4  -.9828   
  1.607     0.3480E-4  -.9877     0.8558E-4  -.9828   
  1.622     0.3516E-4  -.9877     0.8651E-4  -.9828   
  1.637     0.3552E-4  -.9877     0.8744E-4  -.9828   
  1.652     0.3588E-4  -.9877     0.8838E-4  -.9828   
  1.667     0.3624E-4  -.9877     0.8933E-4  -.9828   
  1.682     0.3661E-4  -.9877     0.9027E-4  -.9827   
  1.697     0.3697E-4  -.9877     0.9123E-4  -.9827   
  1.712     0.3733E-4  -.9877     0.9218E-4  -.9827   
  1.727     0.3770E-4  -.9877     0.9314E-4  -.9827   
  1.742     0.3807E-4  -.9877     0.9411E-4  -.9827   
  1.757     0.3843E-4  -.9876     0.9508E-4  -.9827   
  1.772     0.3880E-4  -.9876     0.9605E-4  -.9827   
  1.787     0.3917E-4  -.9876     0.9703E-4  -.9826   
  1.802     0.3954E-4  -.9876     0.9801E-4  -.9826   
  1.817     0.3992E-4  -.9876     0.9900E-4  -.9826   
  1.832     0.4029E-4  -.9876     0.9999E-4  -.9826   
  1.847     0.4066E-4  -.9876     0.1010E-3  -.9826   
  1.862     0.4104E-4  -.9876     0.1020E-3  -.9826   
  1.877     0.4142E-4  -.9876     0.1030E-3  -.9826   
  1.892     0.4179E-4  -.9876     0.1040E-3  -.9825   
  1.907     0.4217E-4  -.9876     0.1050E-3  -.9825   
  1.922     0.4255E-4  -.9876     0.1060E-3  -.9825   
  1.937     0.4294E-4  -.9876     0.1071E-3  -.9825   
  1.952     0.4332E-4  -.9876     0.1081E-3  -.9825   
  1.967     0.4370E-4  -.9876     0.1091E-3  -.9825   
  1.982     0.4409E-4  -.9876     0.1102E-3  -.9824   
  1.997     0.4448E-4  -.9876     0.1112E-3  -.9824   
  2.012     0.4486E-4  -.9875     0.1123E-3  -.9824   
  2.027     0.4525E-4  -.9875     0.1133E-3  -.9824   
  2.042     0.4564E-4  -.9875     0.1144E-3  -.9824   
  2.057     0.4604E-4  -.9875     0.1155E-3  -.9824   
  2.072     0.4643E-4  -.9875     0.1166E-3  -.9823   
  2.087     0.4682E-4  -.9875     0.1176E-3  -.9823   
  2.102     0.4722E-4  -.9875     0.1187E-3  -.9823   
  2.117     0.4762E-4  -.9875     0.1198E-3  -.9823   
  2.132     0.4802E-4  -.9875     0.1209E-3  -.9823   
  2.147     0.4842E-4  -.9875     0.1220E-3  -.9823   
  2.162     0.4882E-4  -.9875     0.1231E-3  -.9822   
  2.177     0.4922E-4  -.9875     0.1243E-3  -.9822   
  2.192     0.4963E-4  -.9875     0.1254E-3  -.9822   
  2.207     0.5003E-4  -.9875     0.1265E-3  -.9822   
  2.222     0.5044E-4  -.9874     0.1277E-3  -.9822   
  2.237     0.5085E-4  -.9874     0.1288E-3  -.9821   
  2.252     0.5126E-4  -.9874     0.1299E-3  -.9821   
  2.267     0.5167E-4  -.9874     0.1311E-3  -.9821   
  2.282     0.5209E-4  -.9874     0.1323E-3  -.9821   
  2.297     0.5250E-4  -.9874     0.1334E-3  -.9821   
  2.312     0.5292E-4  -.9874     0.1346E-3  -.9820   
  2.327     0.5334E-4  -.9874     0.1358E-3  -.9820   
  2.342     0.5376E-4  -.9874     0.1370E-3  -.9820   
  2.357     0.5418E-4  -.9874     0.1382E-3  -.9820   
  2.372     0.5460E-4  -.9874     0.1394E-3  -.9820   
  2.387     0.5503E-4  -.9874     0.1406E-3  -.9819   
  2.402     0.5545E-4  -.9873     0.1418E-3  -.9819   
  2.417     0.5588E-4  -.9873     0.1431E-3  -.9819   
  2.432     0.5631E-4  -.9873     0.1443E-3  -.9819   
  2.447     0.5674E-4  -.9873     0.1456E-3  -.9819   
  2.462     0.5718E-4  -.9873     0.1468E-3  -.9818   
  2.477     0.5761E-4  -.9873     0.1481E-3  -.9818   
  2.492     0.5805E-4  -.9873     0.1493E-3  -.9818   
  2.508     0.5849E-4  -.9873     0.1506E-3  -.9818   
  2.523     0.5893E-4  -.9873     0.1519E-3  -.9817   
  2.538     0.5937E-4  -.9873     0.1532E-3  -.9817   
  2.553     0.5982E-4  -.9873     0.1545E-3  -.9817   
  2.568     0.6027E-4  -.9873     0.1558E-3  -.9817   
  2.583     0.6071E-4  -.9872     0.1571E-3  -.9817   
  2.598     0.6117E-4  -.9872     0.1584E-3  -.9816   
  2.613     0.6162E-4  -.9872     0.1598E-3  -.9816   
  2.628     0.6207E-4  -.9872     0.1611E-3  -.9816   
  2.643     0.6253E-4  -.9872     0.1625E-3  -.9816   
  2.658     0.6299E-4  -.9872     0.1638E-3  -.9815   
  2.673     0.6345E-4  -.9872     0.1652E-3  -.9815   
  2.688     0.6391E-4  -.9872     0.1666E-3  -.9815   
  2.703     0.6437E-4  -.9872     0.1680E-3  -.9815   
  2.718     0.6484E-4  -.9872     0.1694E-3  -.9814   
  2.733     0.6531E-4  -.9871     0.1708E-3  -.9814   
  2.748     0.6578E-4  -.9871     0.1722E-3  -.9814   
  2.763     0.6625E-4  -.9871     0.1737E-3  -.9814   
  2.778     0.6673E-4  -.9871     0.1751E-3  -.9813   
  2.793     0.6721E-4  -.9871     0.1766E-3  -.9813   
  2.808     0.6769E-4  -.9871     0.1780E-3  -.9813   
  2.823     0.6817E-4  -.9871     0.1795E-3  -.9812   
  2.838     0.6865E-4  -.9871     0.1810E-3  -.9812   
  2.853     0.6914E-4  -.9871     0.1825E-3  -.9812   
  2.868     0.6963E-4  -.9871     0.1840E-3  -.9812   
  2.883     0.7012E-4  -.9870     0.1855E-3  -.9811   
  2.898     0.7061E-4  -.9870     0.1870E-3  -.9811   
  2.913     0.7111E-4  -.9870     0.1886E-3  -.9811   
  2.928     0.7161E-4  -.9870     0.1901E-3  -.9811   
  2.943     0.7211E-4  -.9870     0.1917E-3  -.9810   
  2.958     0.7261E-4  -.9870     0.1932E-3  -.9810   
  2.973     0.7312E-4  -.9870     0.1948E-3  -.9810   
  2.988     0.7362E-4  -.9870     0.1964E-3  -.9809   
  3.003     0.7413E-4  -.9870     0.1980E-3  -.9809   
  3.018     0.7465E-4  -.9869     0.1997E-3  -.9809   
  3.033     0.7516E-4  -.9869     0.2013E-3  -.9808   
  3.048     0.7568E-4  -.9869     0.2029E-3  -.9808   
  3.063     0.7620E-4  -.9869     0.2046E-3  -.9808   
  3.078     0.7673E-4  -.9869     0.2063E-3  -.9808   
  3.093     0.7725E-4  -.9869     0.2080E-3  -.9807   
  3.108     0.7778E-4  -.9869     0.2097E-3  -.9807   
  3.123     0.7831E-4  -.9869     0.2114E-3  -.9807   
  3.138     0.7885E-4  -.9869     0.2131E-3  -.9806   
  3.153     0.7938E-4  -.9868     0.2148E-3  -.9806   
  3.168     0.7992E-4  -.9868     0.2166E-3  -.9806   
  3.183     0.8047E-4  -.9868     0.2184E-3  -.9805   
  3.198     0.8101E-4  -.9868     0.2202E-3  -.9805   
  3.213     0.8156E-4  -.9868     0.2220E-3  -.9805   
  3.228     0.8211E-4  -.9868     0.2238E-3  -.9804   
  3.243     0.8267E-4  -.9868     0.2256E-3  -.9804   
  3.258     0.8323E-4  -.9868     0.2274E-3  -.9804   
  3.273     0.8379E-4  -.9867     0.2293E-3  -.9803   
  3.288     0.8435E-4  -.9867     0.2312E-3  -.9803   
  3.303     0.8492E-4  -.9867     0.2331E-3  -.9803   
  3.318     0.8549E-4  -.9867     0.2350E-3  -.9802   
  3.333     0.8606E-4  -.9867     0.2369E-3  -.9802   
  3.348     0.8664E-4  -.9867     0.2388E-3  -.9802   
  3.363     0.8722E-4  -.9867     0.2408E-3  -.9801   
  3.378     0.8780E-4  -.9867     0.2428E-3  -.9801   
  3.393     0.8838E-4  -.9866     0.2447E-3  -.9800   
  3.408     0.8897E-4  -.9866     0.2468E-3  -.9800   
  3.423     0.8957E-4  -.9866     0.2488E-3  -.9800   
  3.438     0.9016E-4  -.9866     0.2508E-3  -.9799   
  3.453     0.9076E-4  -.9866     0.2529E-3  -.9799   
  3.468     0.9136E-4  -.9866     0.2550E-3  -.9799   
  3.483     0.9197E-4  -.9866     0.2571E-3  -.9798   
  3.498     0.9258E-4  -.9865     0.2592E-3  -.9798   
  3.514     0.9319E-4  -.9865     0.2613E-3  -.9797   
  3.529     0.9381E-4  -.9865     0.2635E-3  -.9797   
  3.544     0.9443E-4  -.9865     0.2656E-3  -.9797   
  3.559     0.9505E-4  -.9865     0.2678E-3  -.9796   
  3.574     0.9568E-4  -.9865     0.2700E-3  -.9796   
  3.589     0.9631E-4  -.9865     0.2723E-3  -.9795   
  3.604     0.9695E-4  -.9864     0.2745E-3  -.9795   
  3.619     0.9759E-4  -.9864     0.2768E-3  -.9795   
  3.634     0.9823E-4  -.9864     0.2791E-3  -.9794   
  3.649     0.9888E-4  -.9864     0.2814E-3  -.9794   
  3.664     0.9953E-4  -.9864     0.2838E-3  -.9793   
  3.679     0.1002E-3  -.9864     0.2861E-3  -.9793   
  3.694     0.1008E-3  -.9864     0.2885E-3  -.9792   
  3.709     0.1015E-3  -.9863     0.2909E-3  -.9792   
  3.724     0.1022E-3  -.9863     0.2933E-3  -.9792   
  3.739     0.1028E-3  -.9863     0.2958E-3  -.9791   
  3.754     0.1035E-3  -.9863     0.2983E-3  -.9791   
  3.769     0.1042E-3  -.9863     0.3008E-3  -.9790   
  3.784     0.1049E-3  -.9863     0.3033E-3  -.9790   
  3.799     0.1056E-3  -.9863     0.3059E-3  -.9789   
  3.814     0.1063E-3  -.9862     0.3084E-3  -.9789   
  3.829     0.1070E-3  -.9862     0.3110E-3  -.9788   
  3.844     0.1077E-3  -.9862     0.3137E-3  -.9788   
  3.859     0.1084E-3  -.9862     0.3163E-3  -.9788   
  3.874     0.1091E-3  -.9862     0.3190E-3  -.9787   
  3.889     0.1098E-3  -.9862     0.3217E-3  -.9787   
  3.904     0.1105E-3  -.9861     0.3244E-3  -.9786   
  3.919     0.1112E-3  -.9861     0.3272E-3  -.9786   
  3.934     0.1120E-3  -.9861     0.3300E-3  -.9785   
  3.949     0.1127E-3  -.9861     0.3328E-3  -.9785   
  3.964     0.1134E-3  -.9861     0.3357E-3  -.9784   
  3.979     0.1142E-3  -.9861     0.3385E-3  -.9784   
  3.994     0.1149E-3  -.9860     0.3414E-3  -.9783   
  4.009     0.1157E-3  -.9860     0.3444E-3  -.9783   
  4.024     0.1164E-3  -.9860     0.3473E-3  -.9782   
  4.039     0.1172E-3  -.9860     0.3503E-3  -.9782   
  4.054     0.1180E-3  -.9860     0.3534E-3  -.9781   
  4.069     0.1188E-3  -.9859     0.3564E-3  -.9780   
  4.084     0.1195E-3  -.9859     0.3595E-3  -.9780   
  4.099     0.1203E-3  -.9859     0.3627E-3  -.9779   
  4.114     0.1211E-3  -.9859     0.3658E-3  -.9779   
  4.129     0.1219E-3  -.9859     0.3690E-3  -.9778   
  4.144     0.1227E-3  -.9859     0.3723E-3  -.9778   
  4.159     0.1235E-3  -.9858     0.3755E-3  -.9777   
  4.174     0.1243E-3  -.9858     0.3788E-3  -.9777   
  4.189     0.1251E-3  -.9858     0.3822E-3  -.9776   
  4.204     0.1260E-3  -.9858     0.3855E-3  -.9775   
  4.219     0.1268E-3  -.9858     0.3890E-3  -.9775   
  4.234     0.1276E-3  -.9857     0.3924E-3  -.9774   
  4.249     0.1285E-3  -.9857     0.3959E-3  -.9774   
  4.264     0.1293E-3  -.9857     0.3994E-3  -.9773   
  4.279     0.1302E-3  -.9857     0.4030E-3  -.9772   
  4.294     0.1310E-3  -.9857     0.4066E-3  -.9772   
  4.309     0.1319E-3  -.9856     0.4103E-3  -.9771   
  4.324     0.1328E-3  -.9856     0.4140E-3  -.9771   
  4.339     0.1337E-3  -.9856     0.4177E-3  -.9770   
  4.354     0.1346E-3  -.9856     0.4215E-3  -.9769   
  4.369     0.1354E-3  -.9856     0.4253E-3  -.9769   
  4.384     0.1363E-3  -.9855     0.4292E-3  -.9768   
  4.399     0.1372E-3  -.9855     0.4331E-3  -.9767   
  4.414     0.1382E-3  -.9855     0.4371E-3  -.9767   
  4.429     0.1391E-3  -.9855     0.4411E-3  -.9766   
  4.444     0.1400E-3  -.9855     0.4451E-3  -.9766   
  4.459     0.1409E-3  -.9854     0.4492E-3  -.9765   
  4.474     0.1419E-3  -.9854     0.4534E-3  -.9764   
  4.489     0.1428E-3  -.9854     0.4576E-3  -.9763   
  4.505     0.1438E-3  -.9854     0.4618E-3  -.9763   
  4.520     0.1447E-3  -.9854     0.4662E-3  -.9762   
  4.535     0.1457E-3  -.9853     0.4705E-3  -.9761   
  4.550     0.1467E-3  -.9853     0.4749E-3  -.9761   
  4.565     0.1477E-3  -.9853     0.4794E-3  -.9760   
  4.580     0.1487E-3  -.9853     0.4839E-3  -.9759   
  4.595     0.1497E-3  -.9852     0.4885E-3  -.9759   
  4.610     0.1507E-3  -.9852     0.4931E-3  -.9758   
  4.625     0.1517E-3  -.9852     0.4978E-3  -.9757   
  4.640     0.1527E-3  -.9852     0.5026E-3  -.9756   
  4.655     0.1538E-3  -.9852     0.5074E-3  -.9756   
  4.670     0.1548E-3  -.9851     0.5123E-3  -.9755   
  4.685     0.1559E-3  -.9851     0.5172E-3  -.9754   
  4.700     0.1569E-3  -.9851     0.5223E-3  -.9753   
  4.715     0.1580E-3  -.9851     0.5273E-3  -.9752   
  4.730     0.1591E-3  -.9850     0.5325E-3  -.9752   
  4.745     0.1601E-3  -.9850     0.5377E-3  -.9751   
  4.760     0.1612E-3  -.9850     0.5430E-3  -.9750   
  4.775     0.1623E-3  -.9850     0.5483E-3  -.9749   
  4.790     0.1634E-3  -.9849     0.5537E-3  -.9748   
  4.805     0.1646E-3  -.9849     0.5592E-3  -.9748   
  4.820     0.1657E-3  -.9849     0.5648E-3  -.9747   
  4.835     0.1668E-3  -.9849     0.5704E-3  -.9746   
  4.850     0.1680E-3  -.9848     0.5761E-3  -.9745   
  4.865     0.1691E-3  -.9848     0.5819E-3  -.9744   
  4.880     0.1703E-3  -.9848     0.5878E-3  -.9743   
  4.895     0.1715E-3  -.9848     0.5937E-3  -.9742   
  4.910     0.1727E-3  -.9847     0.5998E-3  -.9741   
  4.925     0.1739E-3  -.9847     0.6059E-3  -.9741   
  4.940     0.1751E-3  -.9847     0.6121E-3  -.9740   
  4.955     0.1763E-3  -.9847     0.6184E-3  -.9739   
  4.970     0.1775E-3  -.9846     0.6248E-3  -.9738   
  4.985     0.1788E-3  -.9846     0.6313E-3  -.9737   
  5.000     0.1800E-3  -.9846     0.6378E-3  -.9736   
  5.015     0.1813E-3  -.9846     0.6445E-3  -.9735   
  5.030     0.1826E-3  -.9845     0.6513E-3  -.9734   
  5.045     0.1839E-3  -.9845     0.6581E-3  -.9733   
  5.060     0.1852E-3  -.9845     0.6651E-3  -.9732   
  5.075     0.1865E-3  -.9844     0.6721E-3  -.9731   
  5.090     0.1878E-3  -.9844     0.6793E-3  -.9730   
  5.105     0.1891E-3  -.9844     0.6866E-3  -.9729   
  5.120     0.1905E-3  -.9844     0.6939E-3  -.9728   
  5.135     0.1918E-3  -.9843     0.7014E-3  -.9727   
  5.150     0.1932E-3  -.9843     0.7090E-3  -.9726   
  5.165     0.1946E-3  -.9843     0.7168E-3  -.9725   
  5.180     0.1960E-3  -.9842     0.7246E-3  -.9724   
  5.195     0.1974E-3  -.9842     0.7326E-3  -.9723   
  5.210     0.1988E-3  -.9842     0.7406E-3  -.9721   
  5.225     0.2002E-3  -.9842     0.7488E-3  -.9720   
  5.240     0.2017E-3  -.9841     0.7572E-3  -.9719   
  5.255     0.2032E-3  -.9841     0.7656E-3  -.9718   
  5.270     0.2046E-3  -.9841     0.7742E-3  -.9717   
  5.285     0.2061E-3  -.9840     0.7830E-3  -.9716   
  5.300     0.2076E-3  -.9840     0.7919E-3  -.9715   
  5.315     0.2091E-3  -.9840     0.8009E-3  -.9713   
  5.330     0.2107E-3  -.9839     0.8100E-3  -.9712   
  5.345     0.2122E-3  -.9839     0.8193E-3  -.9711   
  5.360     0.2138E-3  -.9839     0.8288E-3  -.9710   
  5.375     0.2154E-3  -.9838     0.8384E-3  -.9709   
  5.390     0.2170E-3  -.9838     0.8482E-3  -.9707   
  5.405     0.2186E-3  -.9838     0.8582E-3  -.9706   
  5.420     0.2202E-3  -.9837     0.8683E-3  -.9705   
  5.435     0.2218E-3  -.9837     0.8785E-3  -.9703   
  5.450     0.2235E-3  -.9837     0.8890E-3  -.9702   
  5.465     0.2252E-3  -.9836     0.8996E-3  -.9701   
  5.480     0.2269E-3  -.9836     0.9104E-3  -.9699   
  5.495     0.2286E-3  -.9836     0.9214E-3  -.9698   
  5.511     0.2303E-3  -.9835     0.9326E-3  -.9697   
  5.526     0.2320E-3  -.9835     0.9440E-3  -.9695   
  5.541     0.2338E-3  -.9835     0.9556E-3  -.9694   
  5.556     0.2356E-3  -.9834     0.9674E-3  -.9692   
  5.571     0.2374E-3  -.9834     0.9794E-3  -.9691   
  5.586     0.2392E-3  -.9834     0.9916E-3  -.9689   
  5.601     0.2410E-3  -.9833     0.1004E-2  -.9688   
  5.616     0.2429E-3  -.9833     0.1017E-2  -.9686   
  5.631     0.2448E-3  -.9833     0.1030E-2  -.9685   
  5.646     0.2467E-3  -.9832     0.1043E-2  -.9683   
  5.661     0.2486E-3  -.9832     0.1056E-2  -.9682   
  5.676     0.2505E-3  -.9831     0.1070E-2  -.9680   
  5.691     0.2525E-3  -.9831     0.1084E-2  -.9679   
  5.706     0.2545E-3  -.9831     0.1098E-2  -.9677   
  5.721     0.2565E-3  -.9830     0.1112E-2  -.9675   
  5.736     0.2585E-3  -.9830     0.1127E-2  -.9674   
  5.751     0.2605E-3  -.9830     0.1142E-2  -.9672   
  5.766     0.2626E-3  -.9829     0.1157E-2  -.9670   
  5.781     0.2647E-3  -.9829     0.1173E-2  -.9668   
  5.796     0.2668E-3  -.9828     0.1188E-2  -.9667   
  5.811     0.2689E-3  -.9828     0.1205E-2  -.9665   
  5.826     0.2711E-3  -.9828     0.1221E-2  -.9663   
  5.841     0.2733E-3  -.9827     0.1238E-2  -.9661   
  5.856     0.2755E-3  -.9827     0.1255E-2  -.9659   
  5.871     0.2777E-3  -.9826     0.1272E-2  -.9657   
  5.886     0.2800E-3  -.9826     0.1290E-2  -.9656   
  5.901     0.2823E-3  -.9825     0.1308E-2  -.9654   
  5.916     0.2846E-3  -.9825     0.1327E-2  -.9652   
  5.931     0.2869E-3  -.9825     0.1346E-2  -.9650   
  5.946     0.2893E-3  -.9824     0.1365E-2  -.9648   
  5.961     0.2917E-3  -.9824     0.1385E-2  -.9646   
  5.976     0.2941E-3  -.9823     0.1405E-2  -.9643   
  5.991     0.2965E-3  -.9823     0.1426E-2  -.9641   
  6.006     0.2990E-3  -.9822     0.1447E-2  -.9639   
  6.021     0.3015E-3  -.9822     0.1469E-2  -.9637   
  6.036     0.3041E-3  -.9822     0.1491E-2  -.9635   
  6.051     0.3066E-3  -.9821     0.1513E-2  -.9633   
  6.066     0.3092E-3  -.9821     0.1536E-2  -.9630   
  6.081     0.3119E-3  -.9820     0.1560E-2  -.9628   
  6.096     0.3145E-3  -.9820     0.1584E-2  -.9626   
  6.111     0.3172E-3  -.9819     0.1608E-2  -.9623   
  6.126     0.3200E-3  -.9819     0.1634E-2  -.9621   
  6.141     0.3227E-3  -.9818     0.1659E-2  -.9618   
  6.156     0.3255E-3  -.9818     0.1686E-2  -.9616   
  6.171     0.3284E-3  -.9817     0.1713E-2  -.9613   
  6.186     0.3312E-3  -.9817     0.1740E-2  -.9611   
  6.201     0.3342E-3  -.9816     0.1769E-2  -.9608   
  6.216     0.3371E-3  -.9816     0.1797E-2  -.9605   
  6.231     0.3401E-3  -.9815     0.1827E-2  -.9603   
  6.246     0.3431E-3  -.9815     0.1858E-2  -.9600   
  6.261     0.3462E-3  -.9814     0.1889E-2  -.9597   
  6.276     0.3493E-3  -.9814     0.1921E-2  -.9594   
  6.291     0.3524E-3  -.9813     0.1953E-2  -.9591   
  6.306     0.3556E-3  -.9813     0.1987E-2  -.9589   
  6.321     0.3588E-3  -.9812     0.2021E-2  -.9586   
  6.336     0.3621E-3  -.9812     0.2056E-2  -.9583   
  6.351     0.3654E-3  -.9811     0.2093E-2  -.9579   
  6.366     0.3687E-3  -.9810     0.2130E-2  -.9576   
  6.381     0.3721E-3  -.9810     0.2168E-2  -.9573   
  6.396     0.3756E-3  -.9809     0.2207E-2  -.9570   
  6.411     0.3791E-3  -.9809     0.2247E-2  -.9567   
  6.426     0.3826E-3  -.9808     0.2289E-2  -.9563   
  6.441     0.3862E-3  -.9808     0.2331E-2  -.9560   
  6.456     0.3898E-3  -.9807     0.2375E-2  -.9556   
  6.471     0.3935E-3  -.9806     0.2419E-2  -.9553   
  6.486     0.3973E-3  -.9806     0.2465E-2  -.9549   
  6.502     0.4011E-3  -.9805     0.2513E-2  -.9545   
  6.517     0.4049E-3  -.9805     0.2562E-2  -.9541   
  6.532     0.4088E-3  -.9804     0.2612E-2  -.9538   
  6.547     0.4128E-3  -.9803     0.2663E-2  -.9534   
  6.562     0.4168E-3  -.9803     0.2717E-2  -.9530   
  6.577     0.4209E-3  -.9802     0.2771E-2  -.9526   
  6.592     0.4250E-3  -.9802     0.2828E-2  -.9521   
  6.607     0.4292E-3  -.9801     0.2886E-2  -.9517   
  6.622     0.4335E-3  -.9800     0.2946E-2  -.9513   
  6.637     0.4378E-3  -.9800     0.3008E-2  -.9508   
  6.652     0.4422E-3  -.9799     0.3071E-2  -.9504   
  6.667     0.4466E-3  -.9798     0.3137E-2  -.9499   
  6.682     0.4511E-3  -.9798     0.3205E-2  -.9495   
  6.697     0.4557E-3  -.9797     0.3275E-2  -.9490   
  6.712     0.4604E-3  -.9796     0.3347E-2  -.9485   
  6.727     0.4651E-3  -.9796     0.3422E-2  -.9480   
  6.742     0.4699E-3  -.9795     0.3500E-2  -.9475   
  6.757     0.4748E-3  -.9794     0.3579E-2  -.9469   
  6.772     0.4798E-3  -.9793     0.3662E-2  -.9464   
  6.787     0.4848E-3  -.9793     0.3748E-2  -.9459   
  6.802     0.4899E-3  -.9792     0.3836E-2  -.9453   
  6.817     0.4951E-3  -.9791     0.3928E-2  -.9447   
  6.832     0.5004E-3  -.9791     0.4023E-2  -.9441   
  6.847     0.5058E-3  -.9790     0.4122E-2  -.9435   
  6.862     0.5112E-3  -.9789     0.4224E-2  -.9429   
  6.877     0.5168E-3  -.9788     0.4330E-2  -.9423   
  6.892     0.5224E-3  -.9787     0.4440E-2  -.9416   
  6.907     0.5281E-3  -.9787     0.4554E-2  -.9410   
  6.922     0.5340E-3  -.9786     0.4672E-2  -.9403   
  6.937     0.5399E-3  -.9785     0.4796E-2  -.9396   
  6.952     0.5459E-3  -.9784     0.4924E-2  -.9389   
  6.967     0.5520E-3  -.9783     0.5057E-2  -.9381   
  6.982     0.5583E-3  -.9783     0.5196E-2  -.9374   
  6.997     0.5646E-3  -.9782     0.5341E-2  -.9366   
  7.012     0.5711E-3  -.9781     0.5491E-2  -.9358   
  7.027     0.5776E-3  -.9780     0.5649E-2  -.9350   
  7.042     0.5843E-3  -.9779     0.5812E-2  -.9341   
  7.057     0.5911E-3  -.9778     0.5984E-2  -.9333   
  7.072     0.5980E-3  -.9777     0.6162E-2  -.9324   
  7.087     0.6051E-3  -.9777     0.6349E-2  -.9314   
  7.102     0.6122E-3  -.9776     0.6545E-2  -.9305   
  7.117     0.6196E-3  -.9775     0.6749E-2  -.9295   
  7.132     0.6270E-3  -.9774     0.6963E-2  -.9285   
  7.147     0.6346E-3  -.9773     0.7188E-2  -.9275   
  7.162     0.6423E-3  -.9772     0.7423E-2  -.9264   
  7.177     0.6502E-3  -.9771     0.7670E-2  -.9253   
  7.192     0.6582E-3  -.9770     0.7930E-2  -.9241   
  7.207     0.6664E-3  -.9769     0.8203E-2  -.9230   
  7.222     0.6747E-3  -.9768     0.8490E-2  -.9217   
  7.237     0.6832E-3  -.9767     0.8793E-2  -.9205   
  7.252     0.6918E-3  -.9766     0.9112E-2  -.9192   
  7.267     0.7006E-3  -.9765     0.9448E-2  -.9178   
  7.282     0.7097E-3  -.9764     0.9804E-2  -.9164   
  7.297     0.7188E-3  -.9763     0.1018E-1  -.9150   
  7.312     0.7282E-3  -.9762     0.1058E-1  -.9135   
  7.327     0.7378E-3  -.9761     0.1100E-1  -.9119   
  7.342     0.7475E-3  -.9759     0.1144E-1  -.9103   
  7.357     0.7575E-3  -.9758     0.1192E-1  -.9086   
  7.372     0.7676E-3  -.9757     0.1242E-1  -.9068   
  7.387     0.7780E-3  -.9756     0.1296E-1  -.9050   
  7.402     0.7886E-3  -.9755     0.1353E-1  -.9031   
  7.417     0.7994E-3  -.9754     0.1414E-1  -.9011   
  7.432     0.8105E-3  -.9752     0.1479E-1  -.8990   
  7.447     0.8218E-3  -.9751     0.1549E-1  -.8969   
  7.462     0.8333E-3  -.9750     0.1624E-1  -.8946   
  7.477     0.8451E-3  -.9749     0.1704E-1  -.8923   
  7.492     0.8572E-3  -.9747     0.1791E-1  -.8898   
  7.508     0.8695E-3  -.9746     0.1884E-1  -.8872   
  7.523     0.8821E-3  -.9745     0.1984E-1  -.8845   
  7.538     0.8950E-3  -.9744     0.2093E-1  -.8816   
  7.553     0.9082E-3  -.9742     0.2210E-1  -.8786   
  7.568     0.9217E-3  -.9741     0.2338E-1  -.8754   
  7.583     0.9355E-3  -.9739     0.2477E-1  -.8721   
  7.598     0.9497E-3  -.9738     0.2628E-1  -.8686   
  7.613     0.9641E-3  -.9737     0.2793E-1  -.8649   
  7.628     0.9790E-3  -.9735     0.2975E-1  -.8609   
  7.643     0.9942E-3  -.9734     0.3174E-1  -.8568   
  7.658     0.1010E-2  -.9732     0.3394E-1  -.8524   
  7.673     0.1026E-2  -.9731     0.3637E-1  -.8477   
  7.688     0.1042E-2  -.9729     0.3906E-1  -.8427   
  7.703     0.1059E-2  -.9728     0.4205E-1  -.8374   
  7.718     0.1076E-2  -.9726     0.4540E-1  -.8318   
  7.733     0.1094E-2  -.9724     0.4914E-1  -.8257   
  7.748     0.1112E-2  -.9723     0.5336E-1  -.8193   
  7.763     0.1130E-2  -.9721     0.5812E-1  -.8124   
  7.778     0.1149E-2  -.9719     0.6352E-1  -.8051   
  7.793     0.1169E-2  -.9718     0.6968E-1  -.7972   
  7.808     0.1189E-2  -.9716     0.7674E-1  -.7888   
  7.823     0.1210E-2  -.9714     0.8486E-1  -.7798   
  7.838     0.1231E-2  -.9712     0.9426E-1  -.7702   
  7.853     0.1253E-2  -.9710     0.1052     -.7601   
  7.868     0.1275E-2  -.9708     0.1180     -.7493   
  7.883     0.1298E-2  -.9707     0.1331     -.7380   
  7.898     0.1322E-2  -.9705     0.1509     -.7264   
  7.913     0.1346E-2  -.9703     0.1721     -.7147   
  7.928     0.1371E-2  -.9701     0.1973     -.7034   
  7.943     0.1397E-2  -.9699     0.2274     -.6932   
  7.958     0.1424E-2  -.9696     0.2633     -.6852   
  7.973     0.1452E-2  -.9694     0.3057     -.6814   
  7.988     0.1480E-2  -.9692     0.3551     -.6843   
  8.003     0.1509E-2  -.9690     0.4110     -.6973   
  8.018     0.1539E-2  -.9688     0.4711     -.7246   
  8.033     0.1570E-2  -.9685     0.5307     -.7702   
  8.048     0.1603E-2  -.9683     0.5821     -.8360   
  8.063     0.1636E-2  -.9681     0.6159     -.9193   
  8.078     0.1670E-2  -.9678     0.6243     -1.012   
  8.093     0.1705E-2  -.9676     0.6054     -1.102   
  8.108     0.1742E-2  -.9673     0.5637     -1.179   
  8.123     0.1780E-2  -.9670     0.5080     -1.237   
  8.138     0.1819E-2  -.9668     0.4474     -1.275   
  8.153     0.1860E-2  -.9665     0.3885     -1.297   
  8.168     0.1902E-2  -.9662     0.3350     -1.305   
  8.183     0.1945E-2  -.9659     0.2884     -1.305   
  8.198     0.1990E-2  -.9656     0.2486     -1.299   
  8.213     0.2037E-2  -.9653     0.2151     -1.290   
  8.228     0.2086E-2  -.9650     0.1870     -1.280   
  8.243     0.2136E-2  -.9647     0.1634     -1.268   
  8.258     0.2189E-2  -.9644     0.1436     -1.256   
  8.273     0.2243E-2  -.9641     0.1269     -1.245   
  8.288     0.2300E-2  -.9637     0.1128     -1.234   
  8.303     0.2359E-2  -.9634     0.1008     -1.223   
  8.318     0.2421E-2  -.9630     0.9047E-1  -1.213   
  8.333     0.2485E-2  -.9627     0.8159E-1  -1.204   
  8.348     0.2551E-2  -.9623     0.7391E-1  -1.195   
  8.363     0.2621E-2  -.9619     0.6723E-1  -1.187   
  8.378     0.2694E-2  -.9615     0.6138E-1  -1.179   
  8.393     0.2770E-2  -.9611     0.5625E-1  -1.172   
  8.408     0.2849E-2  -.9607     0.5171E-1  -1.165   
  8.423     0.2932E-2  -.9603     0.4769E-1  -1.159   
  8.438     0.3019E-2  -.9599     0.4411E-1  -1.153   
  8.453     0.3110E-2  -.9594     0.4091E-1  -1.148   
  8.468     0.3206E-2  -.9589     0.3804E-1  -1.143   
  8.483     0.3306E-2  -.9585     0.3546E-1  -1.138   
  8.498     0.3411E-2  -.9580     0.3313E-1  -1.133   
  8.514     0.3522E-2  -.9575     0.3102E-1  -1.129   
  8.529     0.3638E-2  -.9569     0.2910E-1  -1.125   
  8.544     0.3761E-2  -.9564     0.2736E-1  -1.121   
  8.559     0.3890E-2  -.9558     0.2576E-1  -1.117   
  8.574     0.4027E-2  -.9553     0.2430E-1  -1.114   
  8.589     0.4171E-2  -.9547     0.2296E-1  -1.110   
  8.604     0.4323E-2  -.9541     0.2173E-1  -1.107   
  8.619     0.4484E-2  -.9534     0.2060E-1  -1.104   
  8.634     0.4655E-2  -.9527     0.1955E-1  -1.102   
  8.649     0.4837E-2  -.9521     0.1858E-1  -1.099   
  8.664     0.5030E-2  -.9513     0.1768E-1  -1.096   
  8.679     0.5235E-2  -.9506     0.1684E-1  -1.094   
  8.694     0.5453E-2  -.9498     0.1607E-1  -1.092   
  8.709     0.5687E-2  -.9490     0.1534E-1  -1.089   
  8.724     0.5936E-2  -.9482     0.1467E-1  -1.087   
  8.739     0.6203E-2  -.9473     0.1404E-1  -1.085   
  8.754     0.6488E-2  -.9464     0.1345E-1  -1.083   
  8.769     0.6795E-2  -.9455     0.1289E-1  -1.081   
  8.784     0.7126E-2  -.9445     0.1238E-1  -1.079   
  8.799     0.7481E-2  -.9435     0.1189E-1  -1.078   
  8.814     0.7866E-2  -.9424     0.1143E-1  -1.076   
  8.829     0.8281E-2  -.9412     0.1100E-1  -1.074   
  8.844     0.8732E-2  -.9400     0.1059E-1  -1.073   
    8.8589     0.0092    -0.9388     0.0102    -1.0712
    8.8739     0.0098    -0.9375     0.0098    -1.0698
    8.8889     0.0103    -0.9361     0.0095    -1.0684
    8.9039     0.0110    -0.9346     0.0092    -1.0670
  8.919     0.1168E-1  -.9331     0.8880E-2  -1.066   
  8.934     0.1245E-1  -.9315     0.8590E-2  -1.064   
  8.949     0.1330E-1  -.9297     0.8316E-2  -1.063   
  8.964     0.1424E-1  -.9279     0.8056E-2  -1.062   
  8.979     0.1529E-1  -.9260     0.7809E-2  -1.061   
  8.994     0.1647E-1  -.9239     0.7575E-2  -1.060   
  9.009     0.1778E-1  -.9217     0.7352E-2  -1.059   
  9.024     0.1925E-1  -.9194     0.7141E-2  -1.058   
  9.039     0.2092E-1  -.9169     0.6940E-2  -1.057   
  9.054     0.2281E-1  -.9142     0.6749E-2  -1.056   
  9.069     0.2497E-1  -.9114     0.6567E-2  -1.055   
  9.084     0.2744E-1  -.9084     0.6394E-2  -1.054   
  9.099     0.3029E-1  -.9051     0.6230E-2  -1.053   
  9.114     0.3358E-1  -.9017     0.6073E-2  -1.052   
  9.129     0.3742E-1  -.8981     0.5924E-2  -1.051   
  9.144     0.4191E-1  -.8943     0.5783E-2  -1.050   
  9.159     0.4720E-1  -.8903     0.5648E-2  -1.049   
  9.174     0.5347E-1  -.8862     0.5520E-2  -1.048   
  9.189     0.6091E-1  -.8821     0.5399E-2  -1.048   
  9.204     0.6977E-1  -.8782     0.5284E-2  -1.047   
  9.219     0.8035E-1  -.8747     0.5175E-2  -1.046   
  9.234     0.9293E-1  -.8721     0.5071E-2  -1.045   
  9.249     0.1078     -.8711     0.4974E-2  -1.044   
  9.264     0.1249     -.8726     0.4882E-2  -1.044   
  9.279     0.1441     -.8778     0.4795E-2  -1.043   
  9.294     0.1644     -.8882     0.4714E-2  -1.042   
  9.309     0.1840     -.9049     0.4638E-2  -1.042   
  9.324     0.2000     -.9283     0.4568E-2  -1.041   
  9.339     0.2094     -.9571     0.4502E-2  -1.040   
  9.354     0.2099     -.9880     0.4443E-2  -1.040   
  9.369     0.2014     -1.017     0.4388E-2  -1.039   
  9.384     0.1860     -1.041     0.4339E-2  -1.038   
  9.399     0.1668     -1.058     0.4296E-2  -1.038   
  9.414     0.1466     -1.069     0.4259E-2  -1.037   
  9.429     0.1273     -1.075     0.4228E-2  -1.036   
  9.444     0.1101     -1.077     0.4204E-2  -1.036   
  9.459     0.9515E-1  -1.076     0.4186E-2  -1.035   
  9.474     0.8249E-1  -1.073     0.4176E-2  -1.035   
  9.489     0.7186E-1  -1.070     0.4174E-2  -1.034   
  9.505     0.6297E-1  -1.065     0.4180E-2  -1.033   
  9.520     0.5554E-1  -1.061     0.4196E-2  -1.033   
  9.535     0.4933E-1  -1.057     0.4223E-2  -1.032   
  9.550     0.4410E-1  -1.053     0.4261E-2  -1.032   
  9.565     0.3970E-1  -1.049     0.4313E-2  -1.031   
  9.580     0.3597E-1  -1.045     0.4379E-2  -1.030   
  9.595     0.3281E-1  -1.041     0.4463E-2  -1.030   
  9.610     0.3011E-1  -1.037     0.4566E-2  -1.029   
  9.625     0.2781E-1  -1.034     0.4692E-2  -1.028   
  9.640     0.2584E-1  -1.031     0.4845E-2  -1.028   
  9.655     0.2415E-1  -1.028     0.5030E-2  -1.027   
  9.670     0.2271E-1  -1.025     0.5252E-2  -1.027   
  9.685     0.2148E-1  -1.022     0.5520E-2  -1.026   
  9.700     0.2045E-1  -1.019     0.5841E-2  -1.025   
  9.715     0.1958E-1  -1.017     0.6227E-2  -1.024   
  9.730     0.1886E-1  -1.014     0.6692E-2  -1.024   
  9.745     0.1828E-1  -1.012     0.7252E-2  -1.023   
  9.760     0.1783E-1  -1.009     0.7929E-2  -1.022   
  9.775     0.1750E-1  -1.007     0.8744E-2  -1.022   
  9.790     0.1730E-1  -1.004     0.9723E-2  -1.021   
   9.80480    0.01721   -1.00217    0.01089   -1.02078
   9.81982    0.01725   -0.99988    0.01225   -1.02052
   9.83484    0.01741   -0.99760    0.01379   -1.02056
   9.84985    0.01771   -0.99531    0.01545   -1.02100
   9.86487    0.01815   -0.99301    0.01710   -1.02197
   9.87988    0.01876   -0.99067    0.01852   -1.02350
   9.89489    0.01954   -0.98831    0.01943   -1.02553
   9.90991    0.02054   -0.98590    0.01964   -1.02782
   9.92492    0.02177   -0.98344    0.01908   -1.03005
   9.93994    0.02329   -0.98094    0.01788   -1.03190
   9.95496    0.02514   -0.97840    0.01629   -1.03322
   9.96997    0.02740   -0.97584    0.01457   -1.03398
   9.98499    0.03014   -0.97329    0.01290   -1.03427
  10.00000    0.03347   -0.97080    0.01138   -1.03421
  10.01502    0.03749   -0.96848    0.01006   -1.03391
  10.03     0.4234E-1  -.9665     0.8927E-2  -1.033   
  10.05     0.4813E-1  -.9650     0.7974E-2  -1.033   
  10.06     0.5493E-1  -.9645     0.7175E-2  -1.032   
  10.08     0.6271E-1  -.9653     0.6505E-2  -1.032   
  10.09     0.7121E-1  -.9681     0.5942E-2  -1.031   
  10.11     0.7981E-1  -.9735     0.5467E-2  -1.030   
  10.12     0.8748E-1  -.9818     0.5065E-2  -1.030   
  10.14     0.9286E-1  -.9928     0.4723E-2  -1.029   
  10.15     0.9475E-1  -1.005     0.4431E-2  -1.029   
  10.17     0.9266E-1  -1.018     0.4182E-2  -1.028   
  10.18     0.8709E-1  -1.029     0.3967E-2  -1.028   
  10.20     0.7923E-1  -1.038     0.3782E-2  -1.027   
  10.21     0.7044E-1  -1.043     0.3623E-2  -1.027   
  10.23     0.6175E-1  -1.046     0.3485E-2  -1.026   
  10.24     0.5377E-1  -1.047     0.3367E-2  -1.026   
  10.26     0.4676E-1  -1.047     0.3266E-2  -1.025   
  10.27     0.4077E-1  -1.045     0.3180E-2  -1.025   
  10.29     0.3570E-1  -1.044     0.3107E-2  -1.024   
  10.30     0.3146E-1  -1.041     0.3047E-2  -1.024   
  10.32     0.2789E-1  -1.039     0.2998E-2  -1.024   
  10.33     0.2491E-1  -1.037     0.2960E-2  -1.023   
  10.35     0.2239E-1  -1.035     0.2933E-2  -1.023   
  10.36     0.2026E-1  -1.033     0.2915E-2  -1.022   
  10.38     0.1845E-1  -1.031     0.2908E-2  -1.022   
  10.39     0.1691E-1  -1.029     0.2910E-2  -1.021   
  10.41     0.1558E-1  -1.027     0.2924E-2  -1.021   
  10.42     0.1444E-1  -1.025     0.2947E-2  -1.021   
  10.44     0.1346E-1  -1.023     0.2983E-2  -1.020   
  10.45     0.1260E-1  -1.022     0.3030E-2  -1.020   
  10.47     0.1186E-1  -1.020     0.3091E-2  -1.019   
  10.48     0.1121E-1  -1.019     0.3167E-2  -1.019   
  10.50     0.1064E-1  -1.017     0.3259E-2  -1.018   
  10.51     0.1015E-1  -1.016     0.3370E-2  -1.018   
  10.53     0.9716E-2  -1.014     0.3502E-2  -1.018   
  10.54     0.9340E-2  -1.013     0.3659E-2  -1.017   
  10.56     0.9013E-2  -1.012     0.3845E-2  -1.017   
  10.57     0.8731E-2  -1.011     0.4064E-2  -1.016   
  10.59     0.8489E-2  -1.009     0.4324E-2  -1.016   
  10.60     0.8284E-2  -1.008     0.4631E-2  -1.015   
  10.62     0.8113E-2  -1.007     0.4996E-2  -1.015   
  10.63     0.7975E-2  -1.006     0.5429E-2  -1.014   
  10.65     0.7867E-2  -1.005     0.5947E-2  -1.013   
  10.66     0.7788E-2  -1.004     0.6566E-2  -1.013   
  10.68     0.7737E-2  -1.003     0.7309E-2  -1.012   
  10.69     0.7715E-2  -1.001     0.8200E-2  -1.012   
  10.71     0.7721E-2  -1.000     0.9267E-2  -1.011   
  10.72     0.7755E-2  -.9992     0.1054E-1  -1.011   
  10.74     0.7818E-2  -.9981     0.1202E-1  -1.011   
  10.75     0.7912E-2  -.9970     0.1373E-1  -1.011   
  10.77     0.8037E-2  -.9959     0.1559E-1  -1.012   
  10.78     0.8198E-2  -.9948     0.1749E-1  -1.013   
  10.80     0.8395E-2  -.9936     0.1920E-1  -1.014   
  10.81     0.8633E-2  -.9925     0.2042E-1  -1.017   
  10.83     0.8916E-2  -.9913     0.2091E-1  -1.019   
  10.84     0.9249E-2  -.9900     0.2052E-1  -1.022   
  10.86     0.9639E-2  -.9888     0.1935E-1  -1.025   
  10.87     0.1009E-1  -.9874     0.1767E-1  -1.026   
  10.89     0.1062E-1  -.9861     0.1576E-1  -1.028   
  10.90090    0.01124   -0.98468    0.01386   -1.02824
  10.91592    0.01195   -0.98323    0.01211   -1.02844
  10.93     0.1279E-1  -.9817     0.1056E-1  -1.028   
  10.95     0.1376E-1  -.9801     0.9244E-2  -1.028   
  10.96     0.1490E-1  -.9785     0.8128E-2  -1.028   
  10.98     0.1624E-1  -.9768     0.7192E-2  -1.027   
  10.99     0.1781E-1  -.9750     0.6408E-2  -1.027   
  11.01     0.1969E-1  -.9732     0.5749E-2  -1.026   
  11.02     0.2191E-1  -.9713     0.5196E-2  -1.026   
  11.04     0.2456E-1  -.9695     0.4728E-2  -1.025   
  11.05     0.2774E-1  -.9677     0.4330E-2  -1.025   
  11.07     0.3153E-1  -.9661     0.3992E-2  -1.024   
  11.08     0.3604E-1  -.9649     0.3701E-2  -1.024   
  11.10     0.4135E-1  -.9642     0.3452E-2  -1.023   
  11.11     0.4748E-1  -.9645     0.3237E-2  -1.023   
  11.13     0.5431E-1  -.9661     0.3051E-2  -1.022   
  11.14     0.6147E-1  -.9696     0.2890E-2  -1.022   
  11.16     0.6827E-1  -.9754     0.2751E-2  -1.022   
  11.17     0.7368E-1  -.9836     0.2630E-2  -1.021   
  11.19     0.7662E-1  -.9934     0.2526E-2  -1.021   
  11.20     0.7640E-1  -1.004     0.2437E-2  -1.021   
  11.22     0.7308E-1  -1.014     0.2361E-2  -1.020   
  11.23     0.6745E-1  -1.021     0.2298E-2  -1.020   
  11.25     0.6061E-1  -1.027     0.2246E-2  -1.020   
  11.26     0.5355E-1  -1.030     0.2205E-2  -1.019   
  11.28     0.4690E-1  -1.031     0.2174E-2  -1.019   
  11.29     0.4098E-1  -1.031     0.2154E-2  -1.019   
  11.31     0.3588E-1  -1.030     0.2145E-2  -1.018   
  11.32     0.3159E-1  -1.029     0.2147E-2  -1.018   
  11.34     0.2800E-1  -1.027     0.2160E-2  -1.018   
  11.35     0.2502E-1  -1.025     0.2186E-2  -1.018   
  11.37     0.2256E-1  -1.023     0.2226E-2  -1.017   
  11.38     0.2052E-1  -1.021     0.2281E-2  -1.017   
  11.40     0.1883E-1  -1.019     0.2355E-2  -1.017   
  11.41     0.1743E-1  -1.017     0.2449E-2  -1.016   
  11.43     0.1628E-1  -1.016     0.2568E-2  -1.016   
  11.44     0.1534E-1  -1.014     0.2716E-2  -1.016   
  11.46     0.1458E-1  -1.012     0.2899E-2  -1.015   
  11.47     0.1397E-1  -1.010     0.3124E-2  -1.015   
  11.49     0.1350E-1  -1.008     0.3399E-2  -1.015   
  11.50     0.1315E-1  -1.007     0.3733E-2  -1.015   
  11.52     0.1292E-1  -1.005     0.4136E-2  -1.014   
  11.53     0.1279E-1  -1.003     0.4616E-2  -1.014   
  11.55     0.1277E-1  -1.002     0.5174E-2  -1.014   
  11.56     0.1284E-1  -1.000     0.5800E-2  -1.014   
  11.58     0.1302E-1  -.9983     0.6460E-2  -1.014   
  11.59     0.1330E-1  -.9966     0.7088E-2  -1.015   
  11.61     0.1370E-1  -.9949     0.7589E-2  -1.016   
  11.62     0.1423E-1  -.9932     0.7858E-2  -1.016   
  11.64     0.1489E-1  -.9914     0.7829E-2  -1.017   
  11.65     0.1571E-1  -.9895     0.7505E-2  -1.018   
  11.67     0.1672E-1  -.9876     0.6959E-2  -1.019   
  11.68     0.1793E-1  -.9856     0.6295E-2  -1.019   
  11.70     0.1940E-1  -.9836     0.5606E-2  -1.019   
  11.71     0.2116E-1  -.9815     0.4956E-2  -1.019   
  11.73     0.2328E-1  -.9794     0.4374E-2  -1.019   
  11.74     0.2584E-1  -.9773     0.3870E-2  -1.019   
  11.76     0.2892E-1  -.9753     0.3442E-2  -1.019   
  11.77     0.3263E-1  -.9733     0.3081E-2  -1.019   
  11.79     0.3707E-1  -.9717     0.2778E-2  -1.019   
  11.80     0.4237E-1  -.9705     0.2523E-2  -1.018   
  11.82     0.4859E-1  -.9701     0.2309E-2  -1.018   
  11.83     0.5570E-1  -.9709     0.2127E-2  -1.018   
  11.85     0.6350E-1  -.9735     0.1972E-2  -1.018   
  11.86     0.7143E-1  -.9783     0.1839E-2  -1.017   
  11.88     0.7859E-1  -.9859     0.1726E-2  -1.017   
  11.89     0.8374E-1  -.9959     0.1628E-2  -1.017   
  11.91     0.8577E-1  -1.007     0.1543E-2  -1.017   
  11.92     0.8417E-1  -1.019     0.1469E-2  -1.017   
  11.94     0.7933E-1  -1.029     0.1405E-2  -1.016   
  11.95     0.7232E-1  -1.037     0.1349E-2  -1.016   
  11.97     0.6439E-1  -1.043     0.1300E-2  -1.016   
  11.98     0.5649E-1  -1.046     0.1257E-2  -1.016   
  12.00     0.4922E-1  -1.047     0.1220E-2  -1.016   
  12.01     0.4284E-1  -1.046     0.1188E-2  -1.015   
  12.03     0.3738E-1  -1.045     0.1161E-2  -1.015   
  12.04     0.3278E-1  -1.044     0.1138E-2  -1.015   
  12.06     0.2893E-1  -1.042     0.1119E-2  -1.015   
  12.07     0.2573E-1  -1.040     0.1104E-2  -1.015   
  12.09     0.2306E-1  -1.038     0.1092E-2  -1.015   
  12.10     0.2083E-1  -1.036     0.1085E-2  -1.015   
  12.12     0.1897E-1  -1.034     0.1081E-2  -1.014   
  12.13     0.1742E-1  -1.032     0.1081E-2  -1.014   
  12.15     0.1611E-1  -1.030     0.1086E-2  -1.014   
  12.16     0.1503E-1  -1.028     0.1095E-2  -1.014   
  12.18     0.1412E-1  -1.026     0.1109E-2  -1.014   
  12.19     0.1338E-1  -1.025     0.1129E-2  -1.014   
  12.21     0.1277E-1  -1.023     0.1155E-2  -1.013   
  12.22     0.1229E-1  -1.022     0.1189E-2  -1.013   
  12.24     0.1192E-1  -1.020     0.1231E-2  -1.013   
  12.25     0.1165E-1  -1.019     0.1284E-2  -1.013   
  12.27     0.1149E-1  -1.017     0.1350E-2  -1.013   
  12.28     0.1143E-1  -1.016     0.1430E-2  -1.013   
  12.30     0.1147E-1  -1.014     0.1528E-2  -1.013   
  12.31     0.1161E-1  -1.013     0.1648E-2  -1.012   
  12.33     0.1186E-1  -1.011     0.1794E-2  -1.012   
  12.34     0.1224E-1  -1.010     0.1969E-2  -1.012   
  12.36     0.1275E-1  -1.008     0.2178E-2  -1.012   
  12.37     0.1342E-1  -1.007     0.2422E-2  -1.012   
  12.39     0.1427E-1  -1.005     0.2697E-2  -1.012   
  12.40     0.1534E-1  -1.004     0.2989E-2  -1.012   
  12.42     0.1667E-1  -1.002     0.3272E-2  -1.012   
  12.43     0.1830E-1  -1.001     0.3505E-2  -1.012   
  12.45     0.2030E-1  -.9996     0.3641E-2  -1.013   
  12.46     0.2273E-1  -.9984     0.3647E-2  -1.013   
  12.48     0.2563E-1  -.9976     0.3520E-2  -1.013   
  12.49     0.2906E-1  -.9972     0.3288E-2  -1.014   
  12.51     0.3298E-1  -.9975     0.2998E-2  -1.014   
  12.52     0.3726E-1  -.9989     0.2692E-2  -1.014   
  12.54     0.4155E-1  -1.002     0.2400E-2  -1.014   
  12.55     0.4533E-1  -1.006     0.2138E-2  -1.014   
  12.57     0.4791E-1  -1.011     0.1910E-2  -1.014   
  12.58     0.4868E-1  -1.018     0.1716E-2  -1.014   
  12.60     0.4745E-1  -1.024     0.1552E-2  -1.014   
  12.61     0.4449E-1  -1.029     0.1415E-2  -1.014   
  12.63     0.4043E-1  -1.033     0.1299E-2  -1.013   
  12.64     0.3594E-1  -1.036     0.1202E-2  -1.013   
  12.66     0.3153E-1  -1.037     0.1119E-2  -1.013   
  12.67     0.2750E-1  -1.038     0.1049E-2  -1.013   
  12.69     0.2397E-1  -1.037     0.9893E-3  -1.013   
  12.70     0.2095E-1  -1.037     0.9379E-3  -1.013   
  12.72     0.1840E-1  -1.036     0.8936E-3  -1.013   
  12.73     0.1625E-1  -1.034     0.8552E-3  -1.013   
  12.75     0.1445E-1  -1.033     0.8219E-3  -1.012   
  12.76     0.1294E-1  -1.032     0.7929E-3  -1.012   
  12.78     0.1166E-1  -1.031     0.7676E-3  -1.012   
  12.79     0.1057E-1  -1.030     0.7455E-3  -1.012   
  12.81     0.9647E-2  -1.029     0.7261E-3  -1.012   
  12.82     0.8854E-2  -1.028     0.7093E-3  -1.012   
  12.84     0.8171E-2  -1.027     0.6946E-3  -1.012   
  12.85     0.7580E-2  -1.026     0.6820E-3  -1.012   
  12.87     0.7066E-2  -1.025     0.6711E-3  -1.012   
  12.88     0.6618E-2  -1.024     0.6619E-3  -1.011   
  12.90     0.6225E-2  -1.023     0.6543E-3  -1.011   
  12.91     0.5880E-2  -1.022     0.6481E-3  -1.011   
  12.93     0.5577E-2  -1.021     0.6433E-3  -1.011   
  12.94     0.5309E-2  -1.021     0.6400E-3  -1.011   
  12.96     0.5073E-2  -1.020     0.6380E-3  -1.011   
  12.97     0.4864E-2  -1.019     0.6374E-3  -1.011   
  12.99     0.4681E-2  -1.019     0.6381E-3  -1.011   
  13.00     0.4520E-2  -1.018     0.6404E-3  -1.011   
  13.02     0.4380E-2  -1.017     0.6441E-3  -1.011   
  13.03     0.4259E-2  -1.017     0.6496E-3  -1.011   
  13.05     0.4156E-2  -1.016     0.6568E-3  -1.010   
  13.06     0.4069E-2  -1.016     0.6659E-3  -1.010   
  13.08     0.3996E-2  -1.015     0.6772E-3  -1.010   
  13.09     0.3937E-2  -1.015     0.6909E-3  -1.010   
  13.11     0.3889E-2  -1.014     0.7071E-3  -1.010   
  13.12     0.3848E-2  -1.014     0.7262E-3  -1.010   
  13.14     0.3812E-2  -1.013     0.7483E-3  -1.010   
  13.15     0.3778E-2  -1.013     0.7734E-3  -1.010   
  13.17     0.3748E-2  -1.012     0.8012E-3  -1.010   
  13.18     0.3724E-2  -1.012     0.8316E-3  -1.010   
  13.20     0.3708E-2  -1.011     0.8645E-3  -1.009   
  13.21     0.3702E-2  -1.011     0.9002E-3  -1.009   
  13.23     0.3710E-2  -1.010     0.9399E-3  -1.009   
  13.24     0.3731E-2  -1.010     0.9854E-3  -1.009   
  13.26     0.3768E-2  -1.009     0.1039E-2  -1.009   
  13.27     0.3820E-2  -1.008     0.1103E-2  -1.009   
  13.29     0.3890E-2  -1.008     0.1179E-2  -1.009   
  13.30     0.3978E-2  -1.007     0.1271E-2  -1.009   
  13.32     0.4086E-2  -1.007     0.1381E-2  -1.009   
  13.33     0.4217E-2  -1.006     0.1514E-2  -1.008   
  13.35     0.4373E-2  -1.006     0.1675E-2  -1.008   
  13.36     0.4558E-2  -1.005     0.1867E-2  -1.008   
  13.38     0.4776E-2  -1.005     0.2098E-2  -1.008   
  13.39     0.5032E-2  -1.004     0.2373E-2  -1.008   
  13.41     0.5332E-2  -1.003     0.2694E-2  -1.008   
  13.42     0.5686E-2  -1.003     0.3061E-2  -1.008   
  13.44     0.6102E-2  -1.002     0.3459E-2  -1.008   
  13.45     0.6594E-2  -1.001     0.3861E-2  -1.008   
  13.47     0.7176E-2  -1.000     0.4218E-2  -1.009   
  13.48     0.7868E-2  -.9997     0.4466E-2  -1.009   
  13.50     0.8692E-2  -.9989     0.4550E-2  -1.010   
  13.51     0.9679E-2  -.9981     0.4449E-2  -1.010   
  13.53     0.1086E-1  -.9974     0.4188E-2  -1.011   
  13.54     0.1227E-1  -.9967     0.3823E-2  -1.011   
  13.56     0.1396E-1  -.9962     0.3417E-2  -1.011   
  13.57     0.1595E-1  -.9958     0.3017E-2  -1.011   
  13.59     0.1826E-1  -.9958     0.2650E-2  -1.011   
  13.60     0.2085E-1  -.9964     0.2329E-2  -1.011   
  13.62     0.2358E-1  -.9976     0.2054E-2  -1.011   
  13.63     0.2622E-1  -.9997     0.1823E-2  -1.011   
  13.65     0.2836E-1  -1.003     0.1629E-2  -1.011   
  13.66     0.2961E-1  -1.006     0.1466E-2  -1.011   
  13.68     0.2965E-1  -1.010     0.1331E-2  -1.011   
  13.69     0.2848E-1  -1.014     0.1216E-2  -1.011   
  13.71     0.2638E-1  -1.017     0.1120E-2  -1.011   
  13.72     0.2376E-1  -1.019     0.1039E-2  -1.010   
  13.74     0.2101E-1  -1.021     0.9696E-3  -1.010   
  13.75     0.1840E-1  -1.021     0.9106E-3  -1.010   
  13.77     0.1607E-1  -1.021     0.8602E-3  -1.010   
  13.78     0.1405E-1  -1.021     0.8171E-3  -1.010   
  13.80     0.1234E-1  -1.020     0.7801E-3  -1.010   
  13.81     0.1090E-1  -1.020     0.7483E-3  -1.010   
  13.83     0.9706E-2  -1.019     0.7212E-3  -1.010   
  13.84     0.8710E-2  -1.018     0.6981E-3  -1.010   
  13.86     0.7882E-2  -1.018     0.6786E-3  -1.010   
  13.87     0.7192E-2  -1.017     0.6623E-3  -1.009   
  13.89     0.6619E-2  -1.016     0.6489E-3  -1.009   
  13.90     0.6144E-2  -1.015     0.6382E-3  -1.009   
  13.92     0.5751E-2  -1.015     0.6301E-3  -1.009   
  13.93     0.5429E-2  -1.014     0.6245E-3  -1.009   
  13.95     0.5166E-2  -1.014     0.6212E-3  -1.009   
  13.96     0.4949E-2  -1.013     0.6202E-3  -1.009   
  13.98     0.4766E-2  -1.013     0.6216E-3  -1.009   
  13.99     0.4601E-2  -1.012     0.6251E-3  -1.009   
  14.01     0.4439E-2  -1.012     0.6308E-3  -1.009   
  14.02     0.4271E-2  -1.011     0.6384E-3  -1.009   
  14.04     0.4095E-2  -1.011     0.6475E-3  -1.008   
  14.05     0.3915E-2  -1.010     0.6579E-3  -1.008   
  14.07     0.3741E-2  -1.010     0.6694E-3  -1.008   
  14.08     0.3579E-2  -1.010     0.6824E-3  -1.008   
  14.10     0.3433E-2  -1.009     0.6973E-3  -1.008   
  14.11     0.3305E-2  -1.009     0.7150E-3  -1.008   
  14.13     0.3195E-2  -1.008     0.7362E-3  -1.008   
  14.14     0.3102E-2  -1.008     0.7617E-3  -1.008   
  14.16     0.3023E-2  -1.008     0.7922E-3  -1.008   
  14.17     0.2957E-2  -1.007     0.8284E-3  -1.008   
  14.19     0.2904E-2  -1.007     0.8712E-3  -1.008   
  14.20     0.2861E-2  -1.006     0.9217E-3  -1.007   
  14.22     0.2828E-2  -1.006     0.9811E-3  -1.007   
  14.23     0.2803E-2  -1.006     0.1051E-2  -1.007   
  14.25     0.2787E-2  -1.005     0.1134E-2  -1.007   
  14.26     0.2778E-2  -1.005     0.1231E-2  -1.007   
  14.28     0.2776E-2  -1.004     0.1347E-2  -1.007   
  14.29     0.2781E-2  -1.004     0.1485E-2  -1.007   
  14.31     0.2793E-2  -1.004     0.1649E-2  -1.007   
  14.32     0.2811E-2  -1.003     0.1845E-2  -1.006   
  14.34     0.2836E-2  -1.003     0.2081E-2  -1.006   
  14.35     0.2867E-2  -1.002     0.2363E-2  -1.006   
  14.37     0.2905E-2  -1.002     0.2698E-2  -1.006   
  14.38     0.2950E-2  -1.001     0.3091E-2  -1.006   
  14.40     0.3002E-2  -1.001     0.3542E-2  -1.006   
  14.41     0.3061E-2  -1.001     0.4037E-2  -1.006   
  14.43     0.3128E-2  -1.000     0.4545E-2  -1.006   
  14.44     0.3204E-2  -.9997     0.5009E-2  -1.007   
  14.46     0.3288E-2  -.9992     0.5351E-2  -1.008   
  14.47     0.3382E-2  -.9988     0.5498E-2  -1.008   
  14.49     0.3485E-2  -.9983     0.5413E-2  -1.009   
  14.50     0.3600E-2  -.9978     0.5117E-2  -1.010   
  14.52     0.3727E-2  -.9973     0.4676E-2  -1.010   
  14.53     0.3867E-2  -.9967     0.4169E-2  -1.011   
  14.55     0.4021E-2  -.9962     0.3661E-2  -1.011   
  14.56     0.4192E-2  -.9956     0.3190E-2  -1.011   
  14.58     0.4381E-2  -.9950     0.2774E-2  -1.011   
  14.59     0.4589E-2  -.9944     0.2417E-2  -1.011   
  14.61     0.4820E-2  -.9937     0.2115E-2  -1.011   
  14.62     0.5076E-2  -.9930     0.1861E-2  -1.011   
  14.64     0.5360E-2  -.9923     0.1648E-2  -1.010   
  14.65     0.5677E-2  -.9916     0.1469E-2  -1.010   
  14.67     0.6030E-2  -.9908     0.1318E-2  -1.010   
  14.68     0.6425E-2  -.9900     0.1190E-2  -1.010   
  14.70     0.6869E-2  -.9891     0.1081E-2  -1.010   
  14.71     0.7369E-2  -.9882     0.9882E-3  -1.010   
  14.73     0.7934E-2  -.9872     0.9079E-3  -1.010   
  14.74     0.8575E-2  -.9862     0.8383E-3  -1.010   
  14.76     0.9306E-2  -.9851     0.7777E-3  -1.009   
  14.77     0.1014E-1  -.9839     0.7247E-3  -1.009   
  14.79     0.1110E-1  -.9827     0.6780E-3  -1.009   
  14.80     0.1221E-1  -.9814     0.6367E-3  -1.009   
  14.82     0.1350E-1  -.9800     0.6000E-3  -1.009   
  14.83     0.1501E-1  -.9785     0.5673E-3  -1.009   
  14.85     0.1678E-1  -.9770     0.5380E-3  -1.009   
  14.86     0.1886E-1  -.9754     0.5116E-3  -1.009   
  14.88     0.2134E-1  -.9738     0.4878E-3  -1.009   
  14.89     0.2428E-1  -.9722     0.4663E-3  -1.009   
  14.91     0.2780E-1  -.9707     0.4467E-3  -1.009   
  14.92     0.3199E-1  -.9693     0.4288E-3  -1.009   
  14.94     0.3697E-1  -.9684     0.4125E-3  -1.009   
  14.95     0.4284E-1  -.9681     0.3976E-3  -1.009   
  14.97     0.4959E-1  -.9689     0.3838E-3  -1.008   
  14.98     0.5710E-1  -.9712     0.3711E-3  -1.008   
  15.00     0.6496E-1  -.9755     0.3594E-3  -1.008   
# 
# 03/01/2017 at 15:53 YAMBO @ anomaly [start]
# 03/01/2017 at 15:53                 [end]
#  
# Timing   [Min/Max/Average]: 04s/04s/04s
#
# .-Input file : yambo.in
# | optics                       # [R OPT] Optics
# | bse                          # [R BSE] Bethe Salpeter Equation.
# | bsk                          # [R BSK] Bethe Salpeter Equation kernel
# | bss                          # [R BSS] Bethe Salpeter Equation solver
# | tddft                        # [R   K] Use TDDFT kernel
# | BoseTemp= 0.000000     eV    # Bosonic Temperature
# | FFTGvecs=  9939        RL    # [FFT] Plane-waves
# | X_Threads= 1                 # [OPENMP/X] Number of threads for response functions
# | DIP_Threads= 1               # [OPENMP/X] Number of threads for dipoles
# | NonPDirs= "XYZ"              # [X/BSS] Non periodic chartesian directions (X,Y,Z,XY...)
# | BSEmod= "retarded"           # [BSE] resonant/retarded/coupling
# | BSKmod= "ALDA"               # [BSE] IP/Hartree/HF/ALDA/SEX/BSfxc
# | BSSmod= "d"                  # [BSS] (h)aydock/(d)iagonalization/(i)nversion/(t)ddft`
# | BSENGexx=  9045        RL    # [BSK] Exchange components
# | % BEnRange
# |   0.00000 | 15.00000 | eV    # [BSS] Energy range
# | %
# | % BDmRange
# |   0.10000 |  0.10000 | eV    # [BSS] Damping range
# | %
# | BEnSteps= 1000               # [BSS] Energy steps
# | % BLongDir
# | 0.1000E-4 | 0.000    | 0.000    |        # [BSS] [cc] Electric Field
# | %
# | % BSEBands
# |    1 | 200 |                 # [BSK] Bands range
# | %
