#                                                           
#  __  __   ________   ___ __ __    _______   ______        
# /_/\/_/\ /_______/\ /__//_//_/\ /_______/\ /_____/\       
# \ \ \ \ \\::: _  \ \\::\| \| \ \\::: _  \ \\:::_ \ \      
#  \:\_\ \ \\::(_)  \ \\:.      \ \\::(_)  \/_\:\ \ \ \     
#   \::::_\/ \:: __  \ \\:.\-/\  \ \\::  _  \ \\:\ \ \ \    
#     \::\ \  \:.\ \  \ \\. \  \  \ \\::(_)  \ \\:\_\ \ \   
#      \__\/   \__\/\__\/ \__\/ \__\/ \_______\/ \_____\/   
#                                                           
#                                                           
#        Version 4.2.0 Revision 14319 Hash 8432f48          
#                  MPI+SLK+OpenMP Build                     
#                http://www.yambo-code.org                  
#
# Polarizability ( -<<X>> ) [volume @ Q(1) [q->0 direction]0.1000E-4  0.000     0.000   
#
#
# - Energies      are Teter 93(XC)+Scissor
# - Wavefunctions are Teter 93(XC)
#
# - The Green`s function is Retarded -
# - Using the Length Gauge -
# - [r,Vnl] *is* included -
#
#   BSK|Identifier              :3030
#      |Dimension               :69
#      |Bands                   :1 - 70
#      |Exchange           [res]: yes
#      |Correlation        [res]: yes
#      |Kernel`s coupling       : no
#      |Exchange           [cpl]: no
#      |Correlation        [cpl]: no
#      |W interaction is bare   : no
#      |ALDA kernel in R-space  : no
#      |RL vectors    [exchange]:437
#      |RL vectors [correlation]:619
#      |E/h energy range    [ev]:-1.000000 - -1.000000
#      |Coupling range     [o/o]: 100.0000 -  100.0000
#    W |Interaction is diagonal : no
#      |Matrix size             :1503
#      |Bands                   :1 - 250
#      |e/h energy range    [ev]:-1.000000 - -1.000000
#      |Poles              [o/o]: 100.0000
#      |RL vectors in the sum   :9939
#      |[r,Vnl] included        : yes
#      |Field direction         :0.1000E-4  0.000000  0.000000
#      |Coulomb Cutoff          :none
#      |xc-Kernel               :none
#   RIM|RL components      [col]:0
#      |Random points      [col]:0
#
#  E/ev[1]    ALPHA-Im[2]ALPHA-Re[3]ALPHAo-Im[4ALPHAo-Re[5]
#
   0.00000    0.00000   17.85988    0.00000   10.65261
 0.2002E-1  0.8048E-3   17.86     0.1705E-3   10.65   
 0.4004E-1  0.1610E-2   17.86     0.3409E-3   10.65   
 0.6006E-1  0.2415E-2   17.86     0.5114E-3   10.65   
 0.8008E-1  0.3220E-2   17.86     0.6819E-3   10.65   
 0.1001     0.4025E-2   17.86     0.8524E-3   10.65   
 0.1201     0.4830E-2   17.86     0.1023E-2   10.65   
 0.1401     0.5636E-2   17.86     0.1193E-2   10.65   
 0.1602     0.6442E-2   17.87     0.1364E-2   10.65   
 0.1802     0.7248E-2   17.87     0.1535E-2   10.65   
 0.2002     0.8055E-2   17.87     0.1705E-2   10.65   
 0.2202     0.8862E-2   17.87     0.1876E-2   10.65   
 0.2402     0.9670E-2   17.87     0.2046E-2   10.66   
 0.2603     0.1048E-1   17.87     0.2217E-2   10.66   
 0.2803     0.1129E-1   17.88     0.2388E-2   10.66   
 0.3003     0.1210E-1   17.88     0.2559E-2   10.66   
 0.3203     0.1291E-1   17.88     0.2730E-2   10.66   
 0.3403     0.1372E-1   17.88     0.2900E-2   10.66   
 0.3604     0.1453E-1   17.89     0.3071E-2   10.66   
 0.3804     0.1534E-1   17.89     0.3242E-2   10.66   
 0.4004     0.1615E-1   17.89     0.3414E-2   10.66   
 0.4204     0.1697E-1   17.90     0.3585E-2   10.66   
 0.4404     0.1778E-1   17.90     0.3756E-2   10.66   
 0.4605     0.1860E-1   17.90     0.3927E-2   10.66   
 0.4805     0.1942E-1   17.91     0.4099E-2   10.66   
 0.5005     0.2023E-1   17.91     0.4270E-2   10.66   
 0.5205     0.2105E-1   17.91     0.4442E-2   10.66   
 0.5405     0.2187E-1   17.92     0.4613E-2   10.66   
 0.5606     0.2269E-1   17.92     0.4785E-2   10.67   
 0.5806     0.2352E-1   17.93     0.4957E-2   10.67   
 0.6006     0.2434E-1   17.93     0.5129E-2   10.67   
 0.6206     0.2517E-1   17.94     0.5301E-2   10.67   
 0.6406     0.2599E-1   17.94     0.5473E-2   10.67   
 0.6607     0.2682E-1   17.95     0.5645E-2   10.67   
 0.6807     0.2765E-1   17.95     0.5817E-2   10.67   
 0.7007     0.2848E-1   17.96     0.5990E-2   10.67   
 0.7207     0.2931E-1   17.96     0.6162E-2   10.67   
 0.7407     0.3015E-1   17.97     0.6335E-2   10.68   
 0.7608     0.3098E-1   17.98     0.6508E-2   10.68   
 0.7808     0.3182E-1   17.98     0.6680E-2   10.68   
 0.8008     0.3266E-1   17.99     0.6854E-2   10.68   
 0.8208     0.3350E-1   18.00     0.7027E-2   10.68   
 0.8408     0.3435E-1   18.00     0.7200E-2   10.68   
 0.8609     0.3519E-1   18.01     0.7373E-2   10.68   
 0.8809     0.3604E-1   18.02     0.7547E-2   10.69   
 0.9009     0.3689E-1   18.02     0.7721E-2   10.69   
 0.9209     0.3774E-1   18.03     0.7895E-2   10.69   
 0.9409     0.3859E-1   18.04     0.8069E-2   10.69   
 0.9610     0.3945E-1   18.05     0.8243E-2   10.69   
 0.9810     0.4030E-1   18.06     0.8417E-2   10.69   
  1.001     0.4116E-1   18.06     0.8592E-2   10.70   
  1.021     0.4203E-1   18.07     0.8767E-2   10.70   
  1.041     0.4289E-1   18.08     0.8941E-2   10.70   
  1.061     0.4376E-1   18.09     0.9116E-2   10.70   
  1.081     0.4463E-1   18.10     0.9292E-2   10.70   
  1.101     0.4550E-1   18.11     0.9467E-2   10.70   
  1.121     0.4637E-1   18.12     0.9643E-2   10.71   
  1.141     0.4725E-1   18.13     0.9818E-2   10.71   
  1.161     0.4813E-1   18.13     0.9994E-2   10.71   
  1.181     0.4901E-1   18.14     0.1017E-1   10.71   
  1.201     0.4990E-1   18.15     0.1035E-1   10.71   
  1.221     0.5078E-1   18.16     0.1052E-1   10.72   
  1.241     0.5167E-1   18.17     0.1070E-1   10.72   
  1.261     0.5257E-1   18.19     0.1088E-1   10.72   
  1.281     0.5347E-1   18.20     0.1105E-1   10.72   
  1.301     0.5436E-1   18.21     0.1123E-1   10.73   
  1.321     0.5527E-1   18.22     0.1141E-1   10.73   
  1.341     0.5617E-1   18.23     0.1159E-1   10.73   
  1.361     0.5708E-1   18.24     0.1177E-1   10.73   
  1.381     0.5800E-1   18.25     0.1194E-1   10.73   
  1.401     0.5891E-1   18.26     0.1212E-1   10.74   
  1.421     0.5983E-1   18.28     0.1230E-1   10.74   
  1.441     0.6075E-1   18.29     0.1248E-1   10.74   
  1.461     0.6168E-1   18.30     0.1266E-1   10.74   
  1.481     0.6261E-1   18.31     0.1284E-1   10.75   
  1.502     0.6354E-1   18.32     0.1302E-1   10.75   
  1.522     0.6448E-1   18.34     0.1320E-1   10.75   
  1.542     0.6542E-1   18.35     0.1338E-1   10.75   
  1.562     0.6637E-1   18.36     0.1356E-1   10.76   
  1.582     0.6732E-1   18.38     0.1374E-1   10.76   
  1.602     0.6827E-1   18.39     0.1392E-1   10.76   
  1.622     0.6923E-1   18.40     0.1410E-1   10.77   
  1.642     0.7019E-1   18.42     0.1429E-1   10.77   
  1.662     0.7115E-1   18.43     0.1447E-1   10.77   
  1.682     0.7212E-1   18.45     0.1465E-1   10.77   
  1.702     0.7310E-1   18.46     0.1483E-1   10.78   
  1.722     0.7407E-1   18.48     0.1501E-1   10.78   
  1.742     0.7506E-1   18.49     0.1520E-1   10.78   
  1.762     0.7604E-1   18.51     0.1538E-1   10.79   
  1.782     0.7704E-1   18.52     0.1557E-1   10.79   
  1.802     0.7803E-1   18.54     0.1575E-1   10.79   
  1.822     0.7903E-1   18.55     0.1593E-1   10.80   
  1.842     0.8004E-1   18.57     0.1612E-1   10.80   
  1.862     0.8105E-1   18.58     0.1630E-1   10.80   
  1.882     0.8206E-1   18.60     0.1649E-1   10.81   
  1.902     0.8309E-1   18.62     0.1667E-1   10.81   
  1.922     0.8411E-1   18.63     0.1686E-1   10.81   
  1.942     0.8514E-1   18.65     0.1705E-1   10.82   
  1.962     0.8618E-1   18.67     0.1723E-1   10.82   
  1.982     0.8722E-1   18.69     0.1742E-1   10.82   
  2.002     0.8827E-1   18.70     0.1761E-1   10.83   
  2.022     0.8932E-1   18.72     0.1780E-1   10.83   
  2.042     0.9038E-1   18.74     0.1798E-1   10.83   
  2.062     0.9144E-1   18.76     0.1817E-1   10.84   
  2.082     0.9251E-1   18.78     0.1836E-1   10.84   
  2.102     0.9358E-1   18.79     0.1855E-1   10.84   
  2.122     0.9466E-1   18.81     0.1874E-1   10.85   
   2.14214    0.09575   18.83193    0.01893   10.85160
   2.16216    0.09684   18.85120    0.01912   10.85538
   2.18218    0.09794   18.87077    0.01931   10.85930
   2.20220    0.09905   18.89048    0.01950   10.86308
   2.22222    0.10016   18.91027    0.01969   10.86701
   2.24224    0.10128   18.93058    0.01989   10.87094
   2.26226    0.10240   18.95081    0.02008   10.87502
   2.28228    0.10353   18.97156    0.02027   10.87909
   2.30230    0.10467   18.99239    0.02046   10.88317
   2.32232    0.10582   19.01336    0.02066   10.88724
   2.34234    0.10697   19.03463    0.02085   10.89132
   2.36236    0.10813   19.05620    0.02105   10.89555
   2.38238    0.10929   19.07791    0.02124   10.89977
   2.40240    0.11047   19.09985    0.02144   10.90414
   2.42242    0.11165   19.12216    0.02163   10.90837
   2.44244    0.11283   19.14454    0.02183   10.91274
   2.46246    0.11403   19.16729    0.02203   10.91711
   2.48248    0.11523   19.19027    0.02222   10.92163
   2.50250    0.11644   19.21339    0.02242   10.92600
   2.52252    0.11766   19.23681    0.02262   10.93053
   2.54254    0.11889   19.26053    0.02282   10.93505
   2.56256    0.12012   19.28439    0.02302   10.93972
   2.58258    0.12136   19.30848    0.02322   10.94438
   2.60260    0.12261   19.33293    0.02342   10.94905
   2.62262    0.12387   19.35761    0.02362   10.95365
   2.64264    0.12514   19.38251    0.02382   10.95847
   2.66266    0.12641   19.40779    0.02402   10.96328
   2.68268    0.12770   19.43321    0.02422   10.96810
   2.70270    0.12899   19.45878    0.02442   10.97292
   2.72272    0.13030   19.48471    0.02463   10.97788
   2.74274    0.13161   19.51088    0.02483   10.98277
   2.76276    0.13293   19.53748    0.02503   10.98774
   2.78278    0.13426   19.56417    0.02524   10.99285
   2.80280    0.13560   19.59114    0.02544   10.99782
   2.82282    0.13695   19.61841    0.02565   11.00301
   2.84284    0.13831   19.64584    0.02586   11.00812
   2.86286    0.13967   19.67370    0.02606   11.01338
   2.88288    0.14105   19.70186    0.02627   11.01865
   2.90290    0.14244   19.73018    0.02648   11.02383
   2.92292    0.14384   19.75886    0.02669   11.02909
   2.94294    0.14525   19.78769    0.02690   11.03451
   2.96296    0.14667   19.81696    0.02711   11.03992
   2.98298    0.14810   19.84638    0.02732   11.04540
   3.00300    0.14955   19.87625    0.02753   11.05081
   3.02302    0.15100   19.90627    0.02774   11.05637
   3.04304    0.15246   19.93665    0.02795   11.06200
   3.06306    0.15394   19.96726    0.02816   11.06756
   3.08308    0.15543   19.99824    0.02838   11.07319
   3.10310    0.15693   20.02951    0.02859   11.07890
   3.12312    0.15844   20.06109    0.02880   11.08475
   3.14314    0.15996   20.09295    0.02902   11.09053
   3.16316    0.16149   20.12512    0.02924   11.09639
   3.18318    0.16304   20.15751    0.02945   11.10217
   3.20320    0.16460   20.19019    0.02967   11.10817
   3.22322    0.16617   20.22332    0.02989   11.11410
   3.24324    0.16776   20.25674    0.03010   11.12010
   3.26326    0.16936   20.29046    0.03032   11.12611
   3.28328    0.17097   20.32448    0.03054   11.13218
   3.30330    0.17260   20.35887    0.03076   11.13834
   3.32332    0.17424   20.39363    0.03098   11.14456
   3.34334    0.17589   20.42861    0.03121   11.15079
   3.36336    0.17755   20.46404    0.03143   11.15709
   3.38338    0.17924   20.49968    0.03165   11.16331
   3.40340    0.18093   20.53570    0.03188   11.16976
   3.42342    0.18264   20.57209    0.03210   11.17613
   3.44344    0.18437   20.60878    0.03233   11.18258
   3.46346    0.18611   20.64576    0.03255   11.18896
   3.48348    0.18786   20.68319    0.03278   11.19548
   3.50350    0.18963   20.72106    0.03301   11.20222
   3.52352    0.19142   20.75915    0.03323   11.20874
   3.54354    0.19322   20.79754    0.03346   11.21549
   3.56356    0.19504   20.83637    0.03369   11.22216
   3.58358    0.19688   20.87565    0.03392   11.22898
   3.60360    0.19873   20.91523    0.03415   11.23572
   3.62362    0.20060   20.95518    0.03439   11.24269
   3.64364    0.20248   20.99542    0.03462   11.24951
   3.66366    0.20439   21.03611    0.03485   11.25647
   3.68368    0.20631   21.07724    0.03509   11.26351
   3.70370    0.20825   21.11874    0.03532   11.27048
   3.72372    0.21020   21.16062    0.03556   11.27759
   3.74374    0.21218   21.20286    0.03579   11.28471
   3.76376    0.21417   21.24555    0.03603   11.29205
   3.78378    0.21619   21.28846    0.03627   11.29916
   3.80380    0.21822   21.33204    0.03651   11.30642
   3.82382    0.22027   21.37584    0.03675   11.31384
   3.84384    0.22235   21.42008    0.03699   11.32110
   3.86386    0.22444   21.46470    0.03723   11.32858
   3.88388    0.22655   21.50983    0.03747   11.33614
   3.90390    0.22869   21.55549    0.03772   11.34355
   3.92392    0.23084   21.60144    0.03796   11.35126
   3.94394    0.23302   21.64776    0.03821   11.35882
   3.96396    0.23522   21.69460    0.03845   11.36653
   3.98398    0.23744   21.74181    0.03870   11.37424
   4.00400    0.23968   21.78961    0.03895   11.38194
   4.02402    0.24194   21.83778    0.03920   11.38980
   4.04404    0.24423   21.88647    0.03945   11.39766
   4.06406    0.24655   21.93554    0.03970   11.40551
   4.08408    0.24888   21.98504    0.03995   11.41352
   4.10410    0.25124   22.03507    0.04020   11.42152
   4.12412    0.25363   22.08554    0.04045   11.42967
   4.14414    0.25604   22.13660    0.04071   11.43782
   4.16416    0.25847   22.18796    0.04096   11.44598
   4.18418    0.26094   22.23999    0.04122   11.45413
   4.20420    0.26342   22.29246    0.04148   11.46243
   4.22422    0.26594   22.34530    0.04174   11.47073
   4.24424    0.26848   22.39881    0.04200   11.47918
   4.26426    0.27105   22.45269    0.04226   11.48763
   4.28428    0.27365   22.50724    0.04252   11.49600
   4.30430    0.27627   22.56215    0.04278   11.50460
   4.32432    0.27893   22.61774    0.04304   11.51320
   4.34434    0.28161   22.67377    0.04331   11.52179
   4.36436    0.28432   22.73046    0.04357   11.53054
   4.38438    0.28707   22.78760    0.04384   11.53928
   4.40440    0.28984   22.84512    0.04411   11.54810
   4.42442    0.29265   22.90344    0.04438   11.55700
   4.44444    0.29549   22.96243    0.04465   11.56589
   4.46446    0.29836   23.02180    0.04492   11.57471
   4.48448    0.30126   23.08175    0.04519   11.58375
   4.50450    0.30419   23.14231    0.04546   11.59294
   4.52452    0.30717   23.20337    0.04574   11.60213
   4.54454    0.31017   23.26518    0.04601   11.61125
   4.56456    0.31321   23.32759    0.04629   11.62044
   4.58458    0.31629   23.39051    0.04657   11.62970
   4.60460    0.31940   23.45402    0.04685   11.63904
   4.62462    0.32255   23.51820    0.04713   11.64853
   4.64464    0.32573   23.58312    0.04741   11.65794
   4.66466    0.32896   23.64857    0.04769   11.66742
   4.68468    0.33222   23.71460    0.04798   11.67698
   4.70470    0.33553   23.78137    0.04826   11.68677
   4.72472    0.33887   23.84882    0.04855   11.69633
   4.74474    0.34226   23.91700    0.04883   11.70611
   4.76476    0.34568   23.98570    0.04912   11.71597
   4.78478    0.34915   24.05529    0.04941   11.72575
   4.80480    0.35266   24.12540    0.04970   11.73576
   4.82482    0.35622   24.19640    0.05000   11.74569
   4.84484    0.35982   24.26792    0.05029   11.75569
   4.86486    0.36347   24.34033    0.05059   11.76585
   4.88488    0.36716   24.41326    0.05088   11.77592
   4.90490    0.37090   24.48700    0.05118   11.78623
   4.92492    0.37469   24.56163    0.05148   11.79638
   4.94494    0.37852   24.63700    0.05178   11.80676
   4.96496    0.38241   24.71304    0.05208   11.81721
   4.98498    0.38635   24.78990    0.05238   11.82765
   5.00500    0.39034   24.86749    0.05269   11.83818
   5.02502    0.39438   24.94598    0.05300   11.84878
   5.04504    0.39847   25.02520    0.05330   11.85938
   5.06506    0.40262   25.10532    0.05361   11.87012
   5.08508    0.40683   25.18632    0.05392   11.88087
   5.10510    0.41109   25.26814    0.05423   11.89169
   5.12512    0.41541   25.35078    0.05455   11.90258
   5.14514    0.41978   25.43423    0.05486   11.91348
   5.16516    0.42422   25.51857    0.05518   11.92452
   5.18518    0.42872   25.60387    0.05549   11.93556
   5.20520    0.43328   25.69006    0.05581   11.94675
   5.22522    0.43791   25.77707    0.05613   11.95794
   5.24524    0.44260   25.86519    0.05645   11.96914
   5.26526    0.44735   25.95412    0.05678   11.98047
   5.28528    0.45217   26.04410    0.05710   11.99196
   5.30531    0.45707   26.13489    0.05743   12.00330
   5.32533    0.46203   26.22678    0.05776   12.01494
   5.34535    0.46706   26.31965    0.05809   12.02642
   5.36537    0.47216   26.41355    0.05842   12.03821
   5.38539    0.47734   26.50849    0.05875   12.04984
   5.40541    0.48260   26.60446    0.05909   12.06163
   5.42543    0.48793   26.70140    0.05942   12.07356
   5.44545    0.49334   26.79960    0.05976   12.08542
   5.46547    0.49883   26.89869    0.06010   12.09750
   5.48549    0.50440   26.99896    0.06044   12.10958
   5.50551    0.51006   27.10049    0.06078   12.12166
   5.52553    0.51580   27.20306    0.06113   12.13389
   5.54555    0.52163   27.30675    0.06148   12.14604
   5.56557    0.52754   27.41162    0.06182   12.15842
   5.58559    0.53355   27.51767    0.06217   12.17094
   5.60561    0.53965   27.62491    0.06253   12.18339
   5.62563    0.54585   27.73349    0.06288   12.19592
   5.64565    0.55214   27.84317    0.06323   12.20859
   5.66567    0.55853   27.95420    0.06359   12.22119
   5.68569    0.56502   28.06647    0.06395   12.23401
   5.70571    0.57162   28.18009    0.06431   12.24676
   5.72573    0.57832   28.29504    0.06467   12.25973
   5.74575    0.58513   28.41125    0.06504   12.27262
   5.76577    0.59205   28.52893    0.06540   12.28574
   5.78579    0.59908   28.64796    0.06577   12.29893
   5.80581    0.60623   28.76847    0.06614   12.31205
   5.82583    0.61349   28.89023    0.06651   12.32539
   5.84585    0.62088   29.01370    0.06689   12.33873
   5.86587    0.62838   29.13851    0.06726   12.35215
   5.88589    0.63602   29.26487    0.06764   12.36564
   5.90591    0.64378   29.39264    0.06802   12.37912
   5.92593    0.65167   29.52219    0.06841   12.39284
   5.94595    0.65970   29.65329    0.06879   12.40662
   5.96597    0.66786   29.78603    0.06918   12.42041
   5.98599    0.67617   29.92032    0.06956   12.43434
   6.00601    0.68462   30.05624    0.06995   12.44827
   6.02603    0.69322   30.19387    0.07035   12.46228
   6.04605    0.70197   30.33327    0.07074   12.47651
   6.06607    0.71088   30.47446    0.07114   12.49059
   6.08609    0.71994   30.61735    0.07154   12.50497
   6.10611    0.72917   30.76209    0.07194   12.51920
   6.12613    0.73856   30.90876    0.07234   12.53372
   6.14615    0.74813   31.05728    0.07275   12.54825
   6.16617    0.75786   31.20772    0.07316   12.56277
   6.18619    0.76778   31.36017    0.07357   12.57745
   6.20621    0.77788   31.51462    0.07398   12.59227
   6.22623    0.78817   31.67107    0.07439   12.60709
   6.24625    0.79866   31.82952    0.07481   12.62199
   6.26627    0.80934   31.99020    0.07523   12.63696
   6.28629    0.82022   32.15302    0.07565   12.65208
   6.30631    0.83131   32.31785    0.07608   12.66735
   6.32633    0.84262   32.48497    0.07650   12.68261
   6.34635    0.85414   32.65454    0.07693   12.69796
   6.36637    0.86589   32.82619    0.07736   12.71337
   6.38639    0.87787   33.00058    0.07780   12.72894
   6.40641    0.89009   33.17711    0.07824   12.74457
   6.42643    0.90255   33.35609    0.07868   12.76028
   6.44645    0.91526   33.53759    0.07912   12.77607
   6.46647    0.92823   33.72169    0.07956   12.79193
   6.48649    0.94146   33.90837    0.08001   12.80786
   6.50651    0.95497   34.09766    0.08046   12.82402
   6.52653    0.96875   34.29005    0.08091   12.84010
   6.54655    0.98282   34.48482    0.08137   12.85641
   6.56657    0.99718   34.68248    0.08182   12.87264
   6.58659    1.01184   34.88303    0.08228   12.88902
   6.60661    1.02682   35.08661    0.08275   12.90562
   6.62663    1.04212   35.29301    0.08321   12.92214
   6.64665    1.05775   35.50290    0.08368   12.93882
   6.66667    1.07371   35.71560    0.08415   12.95564
   6.68669    1.09003   35.93150    0.08463   12.97269
   6.70671    1.10670   36.15071    0.08510   12.98966
   6.72673    1.12375   36.37342    0.08558   13.00663
   6.74675    1.14118   36.59954    0.08607   13.02390
   6.76677    1.15900   36.82907    0.08655   13.04117
   6.78679    1.17722   37.06223    0.08704   13.05844
   6.80681    1.19587   37.29909    0.08753   13.07600
   6.82683    1.21494   37.53973    0.08803   13.09357
   6.84685    1.23446   37.78408    0.08853   13.11128
   6.86687    1.25443   38.03236    0.08903   13.12899
   6.88689    1.27488   38.28485    0.08953   13.14678
   6.90691    1.29581   38.54128    0.09004   13.16479
   6.92693    1.31725   38.80201    0.09055   13.18280
   6.94695    1.33921   39.06711    0.09107   13.20110
   6.96697    1.36170   39.33643    0.09158   13.21934
   6.98699    1.38475   39.61043    0.09210   13.23764
   7.00701    1.40837   39.88909    0.09263   13.25624
   7.02703    1.43258   40.17242    0.09315   13.27477
   7.04705    1.45740   40.46064    0.09368   13.29352
   7.06707    1.48285   40.75391    0.09422   13.31220
   7.08709    1.50896   41.05236    0.09476   13.33125
   7.10711    1.53575   41.35585    0.09530   13.35022
   7.12713    1.56323   41.66497    0.09584   13.36934
   7.14715    1.59144   41.97943    0.09639   13.38853
   7.16717    1.62041   42.29974    0.09694   13.40795
   7.18719    1.65015   42.62561    0.09749   13.42737
   7.20721    1.68069   42.95771    0.09805   13.44693
   7.22723    1.71207   43.29596    0.09862   13.46665
   7.24725    1.74432   43.64036    0.09918   13.48644
   7.26727    1.77747   43.99135    0.09975   13.50630
   7.28729    1.81155   44.34902    0.10033   13.52631
   7.30731    1.84660   44.71365    0.10090   13.54647
   7.32733    1.88265   45.08503    0.10148   13.56677
   7.34735    1.91974   45.46396    0.10207   13.58708
   7.36737    1.95792   45.85031    0.10266   13.60761
   7.38739    1.99723   46.24422    0.10325   13.62821
   7.40741    2.03771   46.64613    0.10385   13.64896
   7.42743    2.07941   47.05612    0.10445   13.66972
   7.44745    2.12238   47.47448    0.10505   13.69069
   7.46747    2.16667   47.90159    0.10566   13.71174
   7.48749    2.21233   48.33760    0.10628   13.73308
   7.50751    2.25943   48.78271    0.10690   13.75435
   7.52753    2.30802   49.23747    0.10752   13.77585
   7.54755    2.35818   49.70171    0.10814   13.79741
   7.56757    2.40995   50.17625    0.10877   13.81913
   7.58759    2.46343   50.66116    0.10941   13.84092
   7.60761    2.51867   51.15675    0.11005   13.86293
   7.62763    2.57576   51.66353    0.11069   13.88494
   7.64765    2.63479   52.18180    0.11134   13.90710
   7.66767    2.69584   52.71185    0.11199   13.92963
   7.68769    2.75901   53.25420    0.11265   13.95208
   7.70771    2.82439   53.80923    0.11331   13.97469
   7.72773    2.89209   54.37760    0.11398   13.99744
   7.74775    2.96223   54.95945    0.11465   14.02034
   7.76777    3.03491   55.55524    0.11533   14.04317
   7.78779    3.11027   56.16571    0.11601   14.06637
   7.80781    3.18843   56.79144    0.11670   14.08971
   7.82783    3.26954   57.43273    0.11739   14.11320
   7.84785    3.35375   58.09025    0.11809   14.13662
   7.86787    3.44121   58.76490    0.11879   14.16041
   7.88789    3.53211   59.45696    0.11949   14.18420
   7.90791    3.62660   60.16732    0.12020   14.20822
   7.92793    3.72491   60.89666    0.12092   14.23238
   7.94795    3.82722   61.64572    0.12164   14.25661
   7.96797    3.93377   62.41508    0.12237   14.28107
   7.98799    4.04477   63.20601    0.12310   14.30553
   8.00801    4.16050   64.01909    0.12384   14.33035
   8.02803    4.28122   64.85545    0.12459   14.35526
   8.04805    4.40721   65.71603    0.12534   14.38016
   8.06807    4.53880   66.60175    0.12609   14.40535
   8.08809    4.67632   67.51385    0.12685   14.43070
   8.10811    4.82013   68.45345    0.12762   14.45620
   8.12813    4.97062   69.42181    0.12839   14.48162
   8.14815    5.12819   70.42024    0.12917   14.50741
   8.16817    5.29332   71.45041    0.12995   14.53349
   8.18819    5.46650   72.51325    0.13074   14.55951
   8.20821    5.64823   73.61078    0.13154   14.58574
   8.22823    5.83912   74.74477    0.13234   14.61205
   8.24825    6.03976   75.91671    0.13315   14.63873
   8.26827    6.25085   77.12866    0.13396   14.66549
   8.28829    6.47311   78.38257    0.13478   14.69224
   8.30831    6.70735   79.68094    0.13561   14.71937
   8.32833    6.95445   81.02579    0.13645   14.74657
   8.34835    7.21535   82.41984    0.13729   14.77406
   8.36837    7.49109   83.86577    0.13813   14.80156
   8.38839    7.78284   85.36647    0.13899   14.82935
   8.40841    8.09184   86.92505    0.13985   14.85714
   8.42843    8.41948   88.54485    0.14071   14.88516
   8.44845    8.76728   90.22942    0.14159   14.91354
   8.46847    9.13693   91.98277    0.14247   14.94193
   8.48849    9.53029   93.80927    0.14336   14.97053
   8.50851    9.94942   95.71336    0.14425   14.99936
   8.52853   10.39660   97.69987    0.14515   15.02827
   8.54855   10.87440   99.77449    0.14606   15.05732
    8.5686    11.3857   101.9427     0.1470    15.0867
    8.5886    11.9336   104.2113     0.1479    15.1162
    8.6086    12.5217   106.5869     0.1488    15.1459
    8.6286    13.1540   109.0774     0.1498    15.1758
    8.6486    13.8351   111.6912     0.1507    15.2059
    8.6687    14.5701   114.4372     0.1517    15.2362
    8.6887    15.3647   117.3254     0.1526    15.2665
    8.7087    16.2255   120.3671     0.1536    15.2971
    8.7287    17.1601   123.5746     0.1546    15.3281
    8.7487    18.1770   126.9611     0.1556    15.3590
    8.7688    19.2863   130.5419     0.1566    15.3902
    8.7888    20.4991   134.3336     0.1576    15.4218
    8.8088    21.8289   138.3548     0.1586    15.4535
    8.8288    23.2908   142.6258     0.1596    15.4852
    8.8488    24.9030   147.1702     0.1606    15.5172
    8.8689    26.6863   152.0137     0.1617    15.5496
    8.8889    28.6657   157.1855     0.1627    15.5820
    8.9089    30.8705   162.7180     0.1638    15.6146
  8.929      33.34      168.6     0.1649      15.65   
  8.949      36.10      175.0     0.1659      15.68   
  8.969      39.22      181.9     0.1670      15.71   
  8.989      42.76      189.3     0.1681      15.75   
  9.009      46.79      197.3     0.1692      15.78   
  9.029      51.39      205.9     0.1703      15.82   
  9.049      56.70      215.4     0.1714      15.85   
  9.069      62.85      225.6     0.1726      15.88   
  9.089      70.02      236.8     0.1737      15.92   
  9.109      78.44      249.0     0.1749      15.95   
  9.129      88.42      262.4     0.1760      15.99   
  9.149      100.3      277.0     0.1772      16.02   
  9.169      114.7      293.0     0.1784      16.06   
  9.189      132.1      310.4     0.1796      16.10   
  9.209      153.5      329.2     0.1808      16.13   
  9.229      180.1      349.3     0.1820      16.17   
  9.249      213.3      370.1     0.1832      16.20   
  9.269      255.2      390.8     0.1845      16.24   
  9.289      308.3      409.3     0.1857      16.28   
  9.309      375.1      422.0     0.1870      16.32   
  9.329      458.1      422.7     0.1883      16.35   
  9.349      557.0      401.4     0.1895      16.39   
  9.369      665.2      345.3     0.1908      16.43   
  9.389      765.2      243.3     0.1921      16.47   
  9.409      829.4      97.31     0.1935      16.51   
  9.429      833.3     -69.09     0.1948      16.54   
  9.449      775.2     -219.2     0.1961      16.58   
  9.469      677.9     -326.8     0.1975      16.62   
  9.489      569.5     -387.8     0.1989      16.66   
  9.510      469.0     -412.5     0.2003      16.70   
  9.530      384.0     -413.9     0.2017      16.74   
  9.550      315.4     -402.2     0.2031      16.78   
  9.570      260.8     -384.1     0.2045      16.82   
  9.590      217.8     -363.6     0.2059      16.86   
  9.610      183.6     -342.7     0.2074      16.91   
  9.630      156.4     -322.5     0.2088      16.95   
  9.650      134.4     -303.5     0.2103      16.99   
  9.670      116.6     -285.9     0.2118      17.03   
  9.690      101.9     -269.8     0.2133      17.07   
  9.710      89.71     -255.0     0.2148      17.12   
  9.730      79.53     -241.5     0.2164      17.16   
  9.750      70.94     -229.1     0.2179      17.20   
    9.7698    63.6374  -217.8464     0.2195    17.2477
    9.7898    57.3796  -207.4923     0.2211    17.2918
    9.8098    51.9826  -197.9825     0.2227    17.3362
    9.8298    47.2987  -189.2297     0.2243    17.3809
    9.8498    43.2096  -181.1549     0.2259    17.4260
    9.8699    39.6204  -173.6888     0.2276    17.4714
    9.8899    36.4541  -166.7700     0.2293    17.5171
    9.9099    33.6478  -160.3443     0.2309    17.5631
    9.9299    31.1493  -154.3636     0.2326    17.6095
    9.9499    28.9159  -148.7853     0.2344    17.6562
    9.9700    26.9117  -143.5723     0.2361    17.7032
    9.9900    25.1068  -138.6912     0.2379    17.7507
   10.0100    23.4758  -134.1123     0.2396    17.7984
   10.0300    21.9972  -129.8096     0.2414    17.8465
   10.0500    20.6529  -125.7595     0.2432    17.8950
   10.0701    19.4271  -121.9413     0.2451    17.9438
   10.0901    18.3064  -118.3357     0.2469    17.9931
   10.1101    17.2792  -114.9262     0.2488    18.0427
   10.1301    16.3355  -111.6976     0.2507    18.0927
   10.1501    15.4666  -108.6363     0.2526    18.1429
   10.1702    14.6646  -105.7296     0.2545    18.1938
   10.1902    13.9231  -102.9666     0.2564    18.2448
   10.2102    13.2361  -100.3369     0.2584    18.2963
  10.23023   12.59837  -97.83148    0.26040   18.34828
  10.25025   12.00538  -95.44181    0.26242   18.40053
  10.27027   11.45304  -93.15989    0.26445   18.45315
  10.29029   10.93777  -90.97936    0.26651   18.50636
  10.31031   10.45630  -88.89295    0.26859   18.55987
  10.33033   10.00576  -86.89532    0.27069   18.61382
  10.35035    9.58356  -84.98071    0.27282   18.66822
  10.37037    9.18741  -83.14451    0.27497   18.72299
  10.39039    8.81519  -81.38152    0.27714   18.77820
  10.41041    8.46502  -79.68777    0.27934   18.83386
  10.43043    8.13521  -78.05937    0.28156   18.88989
  10.45045    7.82421  -76.49278    0.28381   18.94651
  10.47047    7.53062  -74.98430    0.28608   19.00343
  10.49049    7.25316  -73.53096    0.28838   19.06094
  10.51051    6.99069  -72.12949    0.29071   19.11882
  10.53053    6.74215  -70.77769    0.29306   19.17722
  10.55055    6.50656  -69.47286    0.29544   19.23607
  10.57057    6.28305  -68.21236    0.29784   19.29558
  10.59059    6.07081  -66.99411    0.30028   19.35546
  10.61061    5.86909  -65.81631    0.30274   19.41564
  10.63063    5.67722  -64.67676    0.30523   19.47656
  10.65065    5.49455  -63.57353    0.30776   19.53786
  10.67067    5.32052  -62.50513    0.31031   19.59966
  10.69069    5.15459  -61.46992    0.31289   19.66192
  10.71071    4.99627  -60.46614    0.31550   19.72484
  10.73073    4.84509  -59.49290    0.31814   19.78828
  10.75075    4.70064  -58.54827    0.32082   19.85216
  10.77077    4.56253  -57.63165    0.32353   19.91657
  10.79079    4.43038  -56.74126    0.32627   19.98164
  10.81081    4.30386  -55.87607    0.32904   20.04700
  10.83083    4.18267  -55.03534    0.33185   20.11319
  10.85085    4.06649  -54.21788    0.33469   20.17989
  10.87087    3.95507  -53.42266    0.33757   20.24703
  10.89089    3.84813  -52.64908    0.34048   20.31485
  10.91091    3.74546  -51.89595    0.34343   20.38325
  10.93093    3.64683  -51.16268    0.34642   20.45225
  10.95095    3.55201  -50.44824    0.34944   20.52192
  10.97097    3.46083  -49.75233    0.35251   20.59203
  10.99099    3.37310  -49.07390    0.35561   20.66288
  11.01101    3.28864  -48.41237    0.35875   20.73440
  11.03103    3.20730  -47.76730    0.36193   20.80643
  11.05105    3.12893  -47.13794    0.36515   20.87914
  11.07107    3.05338  -46.52385    0.36841   20.95243
  11.09109    2.98052  -45.92428    0.37171   21.02655
  11.11111    2.91022  -45.33879    0.37506   21.10118
  11.13113    2.84237  -44.76709    0.37845   21.17648
  11.15115    2.77685  -44.20843    0.38189   21.25252
  11.17117    2.71356  -43.66252    0.38537   21.32929
  11.19119    2.65240  -43.12891    0.38890   21.40674
  11.21121    2.59327  -42.60715    0.39247   21.48479
  11.23123    2.53609  -42.09697    0.39609   21.56364
  11.25125    2.48076  -41.59775    0.39977   21.64324
  11.27127    2.42722  -41.10950    0.40349   21.72350
  11.29129    2.37538  -40.63147    0.40726   21.80465
  11.31131    2.32518  -40.16367    0.41108   21.88647
  11.33133    2.27654  -39.70566    0.41495   21.96896
  11.35135    2.22941  -39.25698    0.41888   22.05234
  11.37137    2.18372  -38.81780    0.42286   22.13660
  11.39139    2.13941  -38.38735    0.42690   22.22153
  11.41141    2.09643  -37.96536    0.43099   22.30728
  11.43143    2.05472  -37.55210    0.43514   22.39392
  11.45145    2.01424  -37.14671    0.43935   22.48137
  11.47147    1.97494  -36.74932    0.44362   22.56956
  11.49149    1.93677  -36.35964    0.44795   22.65872
  11.51151    1.89969  -35.97752    0.45234   22.74877
  11.53153    1.86367  -35.60251    0.45679   22.83970
  11.55155    1.82865  -35.23462    0.46131   22.93138
  11.57157    1.79461  -34.87354    0.46590   23.02424
  11.59159    1.76150  -34.51914    0.47055   23.11777
  11.61161    1.72930  -34.17110    0.47527   23.21242
  11.63163    1.69796  -33.82959    0.48005   23.30787
  11.65165    1.66747  -33.49401    0.48491   23.40437
  11.67167    1.63779  -33.16451    0.48984   23.50182
  11.69169    1.60889  -32.84079    0.49485   23.60024
  11.71171    1.58075  -32.52270    0.49993   23.69963
  11.73173    1.55334  -32.21024    0.50509   23.80005
  11.75175    1.52663  -31.90312    0.51032   23.90158
  11.77177    1.50060  -31.60119    0.51563   24.00438
  11.79179    1.47523  -31.30444    0.52103   24.10799
  11.81181    1.45050  -31.01273    0.52651   24.21264
  11.83183    1.42638  -30.72562    0.53208   24.31847
  11.85185    1.40286  -30.44340    0.53773   24.42534
  11.87187    1.37991  -30.16578    0.54347   24.53347
  11.89189    1.35753  -29.89275    0.54930   24.64271
  11.91191    1.33568  -29.62402    0.55522   24.75306
  11.93193    1.31436  -29.35973    0.56123   24.86467
  11.95195    1.29354  -29.09945    0.56735   24.97755
  11.97197    1.27322  -28.84332    0.57356   25.09153
  11.99199    1.25337  -28.59119    0.57987   25.20678
  12.01201    1.23398  -28.34306    0.58629   25.32328
  12.03203    1.21505  -28.09864    0.59280   25.44119
  12.05205    1.19654  -27.85792    0.59943   25.56037
  12.07207    1.17847  -27.62091    0.60617   25.68080
  12.09209    1.16080  -27.38746    0.61302   25.80264
  12.11211    1.14353  -27.15741    0.61998   25.92589
  12.13213    1.12664  -26.93078    0.62706   26.05047
  12.15215    1.11013  -26.70740    0.63426   26.17661
  12.17217    1.09399  -26.48744    0.64158   26.30401
  12.19219    1.07821  -26.27059    0.64903   26.43311
  12.21221    1.06277  -26.05684    0.65661   26.56363
  12.23223    1.04767  -25.84622    0.66431   26.69562
  12.25225    1.03290  -25.63856    0.67216   26.82917
  12.27227    1.01845  -25.43356    0.68014   26.96435
  12.29229    1.00431  -25.23183    0.68826   27.10109
  12.31231    0.99048  -25.03261    0.69652   27.23938
  12.33233    0.97694  -24.83607    0.70493   27.37945
  12.35235    0.96370  -24.64234    0.71349   27.52123
  12.37237    0.95075  -24.45127    0.72221   27.66464
  12.39239    0.93808  -24.26259    0.73109   27.80967
  12.41241    0.92568  -24.07656    0.74013   27.95671
  12.43243    0.91356  -23.89291    0.74933   28.10561
  12.45245    0.90171  -23.71164    0.75871   28.25620
  12.47247    0.89013  -23.53273    0.76826   28.40880
  12.49249    0.87882  -23.35604    0.77799   28.56332
  12.51251    0.86778  -23.18173    0.78790   28.71985
  12.53253    0.85701  -23.00949    0.79800   28.87823
  12.55255    0.84653  -22.83948    0.80829   29.03860
  12.57257    0.83633  -22.67154    0.81879   29.20113
  12.59259    0.82643  -22.50568    0.82948   29.36581
  12.61261    0.81687  -22.34189    0.84039   29.53249
  12.63263    0.80765  -22.17988    0.85151   29.70154
  12.65265    0.79882  -22.01995    0.86285   29.87274
  12.67267    0.79044  -21.86179    0.87441   30.04624
  12.69269    0.78258  -21.70556    0.88620   30.22218
  12.71271    0.77534  -21.55126    0.89824   30.40042
  12.73273    0.76883  -21.39903    0.91052   30.58110
  12.75275    0.76318  -21.24874    0.92305   30.76409
  12.77277    0.75849  -21.10096    0.93583   30.94974
  12.79279    0.75472  -20.95599    0.94888   31.13799
  12.81281    0.75147  -20.81459    0.96221   31.32875
  12.83283    0.74783  -20.67718    0.97581   31.52240
  12.85285    0.74239  -20.54333    0.98971   31.71865
  12.87287    0.73409  -20.41201    1.00390   31.91764
  12.89289    0.72302  -20.28127    1.01839   32.11953
  12.91291    0.71038  -20.14980    1.03320   32.32430
  12.93293    0.69751  -20.01773    1.04833   32.53211
  12.95295    0.68524  -19.88551    1.06379   32.74303
  12.97297    0.67388  -19.75359    1.07960   32.95700
  12.99299    0.66344  -19.62271    1.09575   33.17415
  13.01301    0.65379  -19.49287    1.11228   33.39455
  13.03303    0.64482  -19.36436    1.12917   33.61845
  13.05305    0.63638  -19.23718    1.14645   33.84538
  13.07307    0.62840  -19.11148    1.16413   34.07594
  13.09309    0.62078  -18.98712    1.18221   34.31021
  13.11311    0.61348  -18.86410    1.20072   34.54811
  13.13313    0.60644  -18.74241    1.21967   34.78965
  13.15315    0.59964  -18.62205    1.23906   35.03495
  13.17317    0.59305  -18.50302    1.25892   35.28405
  13.19319    0.58664  -18.38533    1.27925   35.53744
  13.21321    0.58041  -18.26883    1.30009   35.79475
  13.23323    0.57433  -18.15351    1.32143   36.05630
  13.25325    0.56841  -18.03938    1.34329   36.32214
  13.27327    0.56263  -17.92628    1.36571   36.59228
  13.29329    0.55698  -17.81452    1.38868   36.86701
  13.31331    0.55146  -17.70380    1.41224   37.14649
  13.33333    0.54607  -17.59411    1.43640   37.43056
  13.35335    0.54080  -17.48546    1.46119   37.71952
  13.37337    0.53564  -17.37785    1.48661   38.01353
  13.39339    0.53061  -17.27143    1.51271   38.31272
  13.41341    0.52569  -17.16589    1.53950   38.61695
  13.43343    0.52088  -17.06139    1.56700   38.92682
  13.45345    0.51618  -16.95763    1.59524   39.24194
  13.47347    0.51159  -16.85491    1.62425   39.56292
  13.49349    0.50712  -16.75323    1.65406   39.88968
  13.51351    0.50275  -16.65229    1.68469   40.22260
  13.53353    0.49850  -16.55224    1.71618   40.56151
  13.55355    0.49436  -16.45308    1.74856   40.90665
  13.57357    0.49033  -16.35466    1.78186   41.25854
  13.59359    0.48642  -16.25727    1.81612   41.61716
  13.61361    0.48262  -16.16033    1.85137   41.98261
  13.63363    0.47894  -16.06429    1.88766   42.35488
  13.65365    0.47539  -15.96898    1.92502   42.73470
  13.67367    0.47196  -15.87441    1.96350   43.12209
  13.69369    0.46866  -15.78043    2.00315   43.51711
  13.71371    0.46549  -15.68720    2.04400   43.92020
  13.73373    0.46246  -15.59456    2.08612   44.33138
  13.75375    0.45958  -15.50251    2.12955   44.75108
  13.77377    0.45686  -15.41106    2.17435   45.17974
  13.79379    0.45429  -15.32005    2.22057   45.61715
  13.81381    0.45190  -15.22963    2.26828   46.06376
  13.83383    0.44970  -15.13981    2.31755   46.52029
  13.85385    0.44768  -15.05028    2.36843   46.98653
  13.87387    0.44589  -14.96120    2.42101   47.46314
  13.89389    0.44432  -14.87241    2.47536   47.94999
  13.91391    0.44299  -14.78422    2.53155   48.44809
  13.93393    0.44195  -14.69602    2.58969   48.95739
  13.95395    0.44120  -14.60813    2.64984   49.47833
  13.97397    0.44079  -14.52052    2.71211   50.01149
  13.99399    0.44074  -14.43292    2.77661   50.55696
  14.01401    0.44111  -14.34547    2.84342   51.11562
  14.03403    0.44195  -14.25802    2.91268   51.68747
  14.05405    0.44332  -14.17027    2.98450   52.27333
  14.07407    0.44529  -14.08252    3.05901   52.87371
  14.09409    0.44796  -13.99433    3.13635   53.48899
  14.11411    0.45143  -13.90599    3.21664   54.11969
  14.13413    0.45583  -13.81690    3.30006   54.76676
  14.15415    0.46133  -13.72723    3.38678   55.43021
  14.17417    0.46813  -13.63681    3.47695   56.11138
  14.19419    0.47647  -13.54536    3.57077   56.81048
  14.21421    0.48666  -13.45271    3.66844   57.52848
  14.23423    0.49909  -13.35859    3.77017   58.26605
  14.25425    0.51426  -13.26299    3.87620   59.02392
  14.27427    0.53282  -13.16546    3.98675   59.80321
  14.29429    0.55558  -13.06585    4.10210   60.60444
  14.31431    0.58365  -12.96372    4.22254   61.42901
  14.33433    0.61844  -12.85937    4.34835   62.27745
  14.35435    0.66185  -12.75235    4.47987   63.15116
  14.37437    0.71640  -12.64341    4.61745   64.05141
  14.39439    0.78540  -12.53328    4.76146   64.97891
  14.41441    0.87315  -12.42433    4.91231   65.93526
  14.43443    0.98494  -12.32072    5.07045   66.92191
  14.45445    1.12660  -12.23075    5.23634   67.93985
  14.47447    1.30275  -12.16776    5.41051   68.99129
  14.49449    1.51233  -12.15353    5.59351   70.07718
  14.51451    1.74030  -12.21534    5.78594   71.19975
  14.53453    1.94800  -12.37601    5.98848   72.36065
  14.55455    2.07577  -12.62918    6.20182   73.56186
  14.57457    2.07375  -12.92163    6.42677   74.80540
  14.59459    1.94204  -13.17554    6.66418   76.09398
  14.61461    1.73070  -13.33799    6.91497   77.42963
  14.63463    1.49934  -13.40276    7.18019   78.81509
  14.65465    1.28654  -13.39283    7.46092   80.25323
  14.67467    1.10714  -13.33577    7.75842   81.74689
  14.69469    0.96187  -13.25306    8.07408   83.29962
  14.71471    0.84581  -13.15834    8.40935   84.91476
  14.73473    0.75299  -13.05903    8.76590   86.59621
  14.75475    0.67832  -12.95913    9.14561   88.34800
  14.77477    0.61784  -12.86071    9.55044   90.17465
  14.79480    0.56850  -12.76481    9.98273   92.08097
  14.81481    0.52792  -12.67202   10.44494   94.07214
  14.83483    0.49424  -12.58249   10.93992   96.15403
  14.85485    0.46602  -12.49622   11.47087   98.33293
   14.8749     0.4421   -12.4129    12.0413   100.6154
   14.8949     0.4217   -12.3324    12.6551   103.0090
   14.9149     0.4042   -12.2545    13.3170   105.5223
   14.9349     0.3889   -12.1790    14.0319   108.1637
   14.9550     0.3755   -12.1056    14.8057   110.9434
   14.9750     0.3637   -12.0344    15.6450   113.8724
   14.9950     0.3532   -11.9648    16.5573   116.9623
   15.0150     0.3438   -11.8969    17.5514   120.2271
   15.0350     0.3353   -11.8304    18.6371   123.6809
   15.0551     0.3277   -11.7655    19.8260   127.3406
   15.0751     0.3208   -11.7017    21.1316   131.2246
   15.0951     0.3145   -11.6390    22.5692   135.3531
   15.1151     0.3087   -11.5775    24.1573   139.7491
   15.1351     0.3034   -11.5171    25.9175   144.4389
   15.1552     0.2985   -11.4575    27.8749   149.4506
   15.1752     0.2940   -11.3989    30.0600   154.8176
   15.1952     0.2899   -11.3410    32.5088   160.5761
   15.2152     0.2860   -11.2839    35.2647   166.7681
   15.2352     0.2825   -11.2274    38.3808   173.4413
   15.2553     0.2792   -11.1717    41.9207   180.6480
   15.2753     0.2763   -11.1165    45.9633   188.4495
   15.2953     0.2735   -11.0620    50.6067   196.9143
   15.3153     0.2710   -11.0079    55.9714   206.1182
   15.3353     0.2688   -10.9542    62.2112   216.1484
   15.3554     0.2668   -10.9012    69.5185   227.0975
   15.3754     0.2652   -10.8484    78.1418   239.0680
   15.3954     0.2638   -10.7959    88.4016   252.1657
  15.42     0.2627     -10.74      100.7      266.5   
  15.44     0.2620     -10.69      115.6      282.1   
  15.46     0.2616     -10.64      133.9      299.1   
  15.48     0.2618     -10.59      156.4      317.3   
  15.50     0.2625     -10.54      184.4      336.5   
  15.52     0.2639     -10.49      219.7      355.9   
  15.54     0.2661     -10.44      264.3      374.3   
  15.56     0.2694     -10.38      320.7      389.0   
  15.58     0.2740     -10.33      391.3      395.2   
  15.60     0.2802     -10.28      477.3      385.4   
  15.62     0.2886     -10.23      575.5      348.5   
  15.64     0.2998     -10.18      674.3      272.5   
  15.66     0.3146     -10.13      751.4      152.7   
  15.68     0.3336     -10.08      780.3      2.146   
  15.70     0.3576     -10.04      749.1     -147.7   
  15.72     0.3861     -10.01      670.7     -265.9   
  15.74     0.4164     -9.985      571.5     -340.2   
  15.76     0.4426     -9.977      473.7     -375.8   
   15.7758     0.4561    -9.9807   388.3195  -384.8142
   15.7958     0.4511    -9.9881   318.2826  -378.1037
   15.8158     0.4289    -9.9890   262.3930  -363.2315
   15.8358     0.3973    -9.9767   218.2048  -344.7699
   15.8559     0.3639    -9.9517   183.2514  -325.2857
   15.8759     0.3336    -9.9170   155.4357  -306.1242
   15.8959     0.3081    -9.8765   133.1162  -287.9469
   15.9159     0.2872    -9.8328   115.0345  -271.0280
   15.9359     0.2704    -9.7880   100.2412  -255.4406
   15.9560     0.2568    -9.7428    88.0239  -241.1561
   15.9760     0.2458    -9.6979    77.8404  -228.0933
   15.9960     0.2367    -9.6534    69.2779  -216.1509
   16.0160     0.2291    -9.6097    62.0212  -205.2255
   16.0360     0.2227    -9.5666    55.8243  -195.2152
   16.0561     0.2172    -9.5242    50.4949  -186.0253
   16.0761     0.2125    -9.4825    45.8825  -177.5716
   16.0961     0.2083    -9.4415    41.8659  -169.7763
   16.1161     0.2047    -9.4008    38.3493  -162.5727
   16.1361     0.2014    -9.3610    35.2540  -155.8997
   16.1562     0.1984    -9.3214    32.5163  -149.7042
   16.1762     0.1957    -9.2824    30.0843  -143.9397
   16.1962     0.1932    -9.2439    27.9147  -138.5643
   16.2162     0.1909    -9.2058    25.9715  -133.5410
   16.2362     0.1888    -9.1680    24.2248  -128.8380
   16.2563     0.1869    -9.1308    22.6493  -124.4256
   16.2763     0.1851    -9.0937    21.2238  -120.2791
   16.2963     0.1834    -9.0570    19.9301  -116.3751
   16.3163     0.1818    -9.0207    18.7526  -112.6926
   16.3363     0.1804    -8.9846    17.6781  -109.2142
   16.3564     0.1790    -8.9489    16.6952  -105.9232
   16.3764     0.1778    -8.9135    15.7938  -102.8041
  16.39639    0.17671   -8.87836   14.96559  -99.84468
  16.41641    0.17576   -8.84352   14.20294  -97.03211
  16.43644    0.17494   -8.80914   13.49925  -94.35532
  16.45646    0.17422   -8.77504   12.84891  -91.80497
  16.47648    0.17354   -8.74140   12.24675  -89.37171
  16.49650    0.17276   -8.70819   11.68843  -87.04741
  16.51652    0.17175   -8.67544   11.16997  -84.82463
  16.53654    0.17048   -8.64268   10.68783  -82.69598
  16.55655    0.16904   -8.61007   10.23899  -80.65582
  16.57657    0.16757   -8.57746    9.82066  -78.69791
  16.59660    0.16617   -8.54470    9.43035  -76.81680
  16.61662    0.16489   -8.51209    9.06593  -75.00771
  16.63664    0.16374   -8.47978    8.72539  -73.26593
  16.65666    0.16271   -8.44732    8.40702  -71.58743
  16.67668    0.16180   -8.41515    8.10924  -69.96793
  16.69670    0.16099   -8.38299    7.83063  -68.40401
  16.71671    0.16029   -8.35112    7.56998  -66.89198
  16.73673    0.15970   -8.31925    7.32618  -65.42886
  16.75676    0.15921   -8.28768    7.09821  -64.01108
  16.77678    0.15884   -8.25611    6.88525  -62.63615
  16.79680    0.15857   -8.22498    6.68652  -61.30125
  16.81682    0.15838   -8.19386    6.50139  -60.00383
  16.83684    0.15821   -8.16288    6.32931  -58.74140
  16.85686    0.15802   -8.13205    6.16982  -57.51129
  16.87688    0.15780   -8.10136    6.02257  -56.31141
  16.89689    0.15760   -8.07068    5.88733  -55.13969
  16.91692    0.15748   -8.03970    5.76392  -53.99362
  16.93694    0.15752   -8.00887    5.65234  -52.87112
  16.95695    0.15777   -7.97789    5.55267  -51.77010
  16.97698    0.15826   -7.94676    5.46513  -50.68851
  16.99700    0.15902   -7.91564    5.39011  -49.62396
  17.01702    0.16009   -7.88436    5.32816  -48.57423
  17.03704    0.16153   -7.85279    5.28007  -47.53740
  17.05706    0.16340   -7.82122    5.24687  -46.51095
  17.07708    0.16580   -7.78950    5.22990  -45.49235
  17.09710    0.16885   -7.75733    5.23089  -44.47894
  17.11712    0.17271   -7.72502    5.25206  -43.46819
  17.13714    0.17759   -7.69226    5.29625  -42.45700
  17.15716    0.18376   -7.65921    5.36706  -41.44241
  17.17718    0.19161   -7.62601    5.46917  -40.42085
  17.19720    0.20161   -7.59236    5.60853  -39.38905
  17.21722    0.21442   -7.55916    5.79292  -38.34333
  17.23724    0.23084   -7.52640    6.03249  -37.27967
  17.25726    0.25180   -7.49557    6.34051  -36.19511
  17.27728    0.27814   -7.46830    6.73459  -35.08743
  17.29730    0.31007   -7.44799    7.23814  -33.95647
  17.31732    0.34598   -7.43850    7.88212  -32.80640
  17.33734    0.38084   -7.44428    8.70765  -31.64951
  17.35736    0.40574   -7.46607    9.76761  -30.51307
  17.37738    0.41145   -7.49735   11.12732  -29.45119
  17.39740    0.39526   -7.52596   12.85837  -28.56332
  17.41742    0.36345   -7.54182   15.01583  -28.02097
  17.43744    0.32586   -7.54137   17.58305  -28.08960
  17.45746    0.28989   -7.52773   20.36673  -29.10894
  17.47748    0.25891   -7.50520   22.88035  -31.34906
  17.49750    0.23357   -7.47778   24.38723  -34.71450
  17.51752    0.21328   -7.44799   24.28828  -38.53454
  17.53754    0.19712   -7.41701   22.60973  -41.85047
  17.55756    0.18420   -7.38603   19.97900  -44.03056
  17.57758    0.17377   -7.35535   17.12409  -45.01581
  17.59760    0.16527   -7.32511   14.50796  -45.09021
  17.61762    0.15826   -7.29561   12.30698  -44.59055
  17.63764    0.15240   -7.26656   10.53024  -43.77591
  17.65766    0.14746   -7.23825    9.11974  -42.81141
  17.67768    0.14325   -7.21038    8.00395  -41.79237
  17.69770    0.13961   -7.18296    7.11864  -40.77065
  17.71772    0.13645   -7.15614    6.41160  -39.77206
  17.73774    0.13367   -7.12975    5.84281  -38.80801
  17.75776    0.13120   -7.10381    5.38191  -37.88250
  17.77778    0.12901   -7.07817    5.00612  -36.99493
  17.79780    0.12703   -7.05297    4.69841  -36.14323
  17.81782    0.12524   -7.02792    4.44592  -35.32370
  17.83784    0.12361   -7.00346    4.23900  -34.53247
  17.85786    0.12212   -6.97901    4.07037  -33.76630
  17.87788    0.12075   -6.95485    3.93457  -33.02118
  17.89790    0.11949   -6.93098    3.82756  -32.29354
  17.91792    0.11832   -6.90741    3.74643  -31.57999
  17.93794    0.11725   -6.88399    3.68918  -30.87711
  17.95796    0.11625   -6.86072    3.65465  -30.18193
  17.97798    0.11532   -6.83760    3.64235  -29.49121
  17.99800    0.11447   -6.81477    3.65253  -28.80182
  18.01802    0.11368   -6.79210    3.68610  -28.11050
  18.03804    0.11297   -6.76957    3.74476  -27.41399
  18.05806    0.11233   -6.74718    3.83105  -26.70889
  18.07808    0.11176   -6.72495    3.94856  -25.99163
  18.09810    0.11127   -6.70286    4.10213  -25.25836
  18.11812    0.11084   -6.68093    4.29821  -24.50523
  18.13814    0.11046   -6.65929    4.54536  -23.72839
  18.15816    0.11010   -6.63779    4.85492  -22.92352
  18.17818    0.10975   -6.61630    5.24179  -22.08739
  18.19820    0.10945   -6.59510    5.72590  -21.21761
  18.21822    0.10921   -6.57391    6.33381  -20.31433
  18.23824    0.10906   -6.55286    7.10070  -19.38288
  18.25826    0.10896   -6.53196    8.07331  -18.43766
  18.27828    0.10883   -6.51136    9.31172  -17.51096
  18.29830    0.10858   -6.49075   10.88992  -16.66533
  18.31832    0.10821   -6.47030   12.88838  -16.01567
  18.33834    0.10778   -6.44984   15.36717  -15.75968
  18.35836    0.10741   -6.42909   18.30166  -16.20124
  18.37838    0.10718   -6.40834   21.46223  -17.72425
  18.39840    0.10714   -6.38744   24.28559  -20.62249
  18.41842    0.10731   -6.36654   25.93737  -24.76344
  18.43844    0.10773   -6.34549   25.76427  -29.36537
  18.45846    0.10843   -6.32445   23.83199  -33.35217
  18.47848    0.10946   -6.30355   20.86468  -36.04066
  18.49850    0.11090   -6.28235   17.67414  -37.38921
  18.51852    0.11285   -6.26130   14.76567  -37.72568
  18.53854    0.11544   -6.24011   12.32646  -37.42789
  18.55856    0.11886   -6.21891   10.36146  -36.78252
  18.57858    0.12334   -6.19801    8.80379  -35.97129
  18.59860    0.12917   -6.17756    7.57295  -35.09988
  18.61862    0.13665   -6.15799    6.59716  -34.22461
  18.63864    0.14597   -6.14035    5.81823  -33.37410
  18.65866    0.15691   -6.12553    5.19164  -32.56123
  18.67868    0.16838   -6.11530    4.68355  -31.79017
  18.69870    0.17797   -6.11026    4.26860  -31.06076
  18.71872    0.18251   -6.10967    3.92781  -30.37048
  18.73874    0.17997   -6.11011    3.64682  -29.71607
  18.75876    0.17122   -6.10745    3.41482  -29.09352
  18.77878    0.15925   -6.09989    3.22369  -28.49899
  18.79880    0.14693   -6.08744    3.06728  -27.92863
  18.81882    0.13590   -6.07172    2.94111  -27.37916
  18.83884    0.12667   -6.05379    2.84190  -26.84718
  18.85886    0.11919   -6.03482    2.76751  -26.32943
  18.87888    0.11317   -6.01540    2.71675  -25.82295
  18.89890    0.10833   -5.99598    2.68933  -25.32491
  18.91892    0.10440   -5.97656    2.68589  -24.83251
  18.93894    0.10118   -5.95744    2.70811  -24.34322
  18.95896    0.09849   -5.93847    2.75884  -23.85438
  18.97898    0.09623   -5.91979    2.84239  -23.36420
  18.99900    0.09430   -5.90127    2.96496  -22.87076
  19.01902    0.09263   -5.88303    3.13517  -22.37332
  19.03904    0.09117   -5.86495    3.36477  -21.87306
  19.05906    0.08988   -5.84716    3.66961  -21.37428
  19.07908    0.08872   -5.82952    4.07038  -20.88766
  19.09910    0.08768   -5.81203    4.59264  -20.43394
  19.11912    0.08673   -5.79469    5.26449  -20.05271
  19.13914    0.08587   -5.77765    6.10768  -19.81199
  19.15916    0.08507   -5.76060    7.11498  -19.81703
  19.17918    0.08433   -5.74370    8.20902  -20.20271
  19.19920    0.08365   -5.72695    9.19574  -21.07591
  19.21922    0.08301   -5.71050    9.78203  -22.39762
  19.23924    0.08242   -5.69390    9.73038  -23.90018
  19.25926    0.08187   -5.67759    9.05233  -25.20248
  19.27928    0.08137   -5.66144    7.99787  -26.05433
  19.29930    0.08090   -5.64528    6.85568  -26.43304
  19.31932    0.08048   -5.62927    5.80940  -26.45157
  19.33934    0.08008   -5.61341    4.92856  -26.24390
  19.35936    0.07970   -5.59770    4.21652  -25.91277
  19.37938    0.07929   -5.58214    3.65010  -25.52338
  19.39940    0.07884   -5.56672    3.20082  -25.11354
  19.41942    0.07835   -5.55131    2.84310  -24.70385
  19.43944    0.07782   -5.53604    2.55620  -24.30468
  19.45946    0.07727   -5.52077    2.32411  -23.92019
  19.47948    0.07673   -5.50551    2.13478  -23.55230
  19.49950    0.07621   -5.49039    1.97912  -23.20085
  19.51952    0.07571   -5.47527    1.85028  -22.86453
  19.53954    0.07524   -5.46030    1.74316  -22.54259
  19.55956    0.07479   -5.44533    1.65385  -22.23310
  19.57958    0.07436   -5.43036    1.57943  -21.93487
  19.59960    0.07394   -5.41553    1.51769  -21.64642
  19.61962    0.07354   -5.40086    1.46697  -21.36672
  19.63964    0.07315   -5.38619    1.42609  -21.09414
  19.65966    0.07276   -5.37151    1.39424  -20.82748
  19.67968    0.07239   -5.35713    1.37093  -20.56601
  19.69970    0.07202   -5.34261    1.35600  -20.30810
  19.71972    0.07166   -5.32823    1.34956  -20.05316
  19.73974    0.07131   -5.31400    1.35209  -19.79999
  19.75976    0.07096   -5.29977    1.36441  -19.54756
  19.77978    0.07061   -5.28554    1.38780  -19.29484
  19.79980    0.07027   -5.27146    1.42411  -19.04108
  19.81982    0.06994   -5.25738    1.47590  -18.78554
  19.83984    0.06961   -5.24344    1.54671  -18.52763
  19.85986    0.06928   -5.22951    1.64132  -18.26779
  19.87988    0.06896   -5.21573    1.76617  -18.00751
  19.89990    0.06864   -5.20194    1.92971  -17.75004
  19.91992    0.06832   -5.18831    2.14262  -17.50310
  19.93994    0.06801   -5.17467    2.41731  -17.28091
  19.95996    0.06770   -5.16103    2.76513  -17.10838
  19.97998    0.06739   -5.14754    3.18910  -17.02656
  20.00000    0.06709   -5.13405    3.66844  -17.09207
# 
# 03/01/2017 at 15:53 YAMBO @ anomaly [start]
# 03/01/2017 at 15:53                 [end]
#  
# Timing   [Min/Max/Average]: 03s/03s/03s
#
# .-Input file : yambo.in
# | optics                       # [R OPT] Optics
# | bse                          # [R BSE] Bethe Salpeter Equation.
# | bsk                          # [R BSK] Bethe Salpeter Equation kernel
# | bss                          # [R BSS] Bethe Salpeter Equation solver
# | FFTGvecs=  9939        RL    # [FFT] Plane-waves
# | X_Threads= 1                 # [OPENMP/X] Number of threads for response functions
# | DIP_Threads= 1               # [OPENMP/X] Number of threads for dipoles
# | NonPDirs= "XYZ"              # [X/BSS] Non periodic chartesian directions (X,Y,Z,XY...)
# | BSEmod= "retarded"           # [BSE] resonant/retarded/coupling
# | BSKmod= "SEX"                # [BSE] IP/Hartree/HF/ALDA/SEX/BSfxc
# | BSSmod= "d"                  # [BSS] (h)aydock/(d)iagonalization/(i)nversion/(t)ddft`
# | BSENGexx=  437         RL    # [BSK] Exchange components
# | BSENGBlk=  619         RL    # [BSK] Screened interaction block size
# | #WehCpl                      # [BSK] eh interaction included also in coupling
# | % KfnQP_E
# |  7.600000 | 1.000000 | 1.000000 |        # [EXTQP BSK BSS] E parameters  (c/v) eV|adim|adim
# | %
# | % BEnRange
# |   0.00000 | 20.00000 | eV    # [BSS] Energy range
# | %
# | % BDmRange
# |   0.10000 |  0.10000 | eV    # [BSS] Damping range
# | %
# | BEnSteps= 1000               # [BSS] Energy steps
# | % BLongDir
# | 0.1000E-4 | 0.000    | 0.000    |        # [BSS] [cc] Electric Field
# | %
# | % BSEBands
# |    1 |  70 |                 # [BSK] Bands range
# | %
