#                                                           
#  __  __   ________   ___ __ __    _______   ______        
# /_/\/_/\ /_______/\ /__//_//_/\ /_______/\ /_____/\       
# \ \ \ \ \\::: _  \ \\::\| \| \ \\::: _  \ \\:::_ \ \      
#  \:\_\ \ \\::(_)  \ \\:.      \ \\::(_)  \/_\:\ \ \ \     
#   \::::_\/ \:: __  \ \\:.\-/\  \ \\::  _  \ \\:\ \ \ \    
#     \::\ \  \:.\ \  \ \\. \  \  \ \\::(_)  \ \\:\_\ \ \   
#      \__\/   \__\/\__\/ \__\/ \__\/ \_______\/ \_____\/   
#                                                           
#                                                           
#        Version 4.3.0 Revision 15624 Hash 7ed12fb          
#                      MPI+SLK Build                        
#                http://www.yambo-code.org                  
#
# EELS @ Q(1)  [q->0 direction]:0.1000E-4  0.000     0.000   
#
#
# - Energies      are  Analyt. E
# - Wavefunctions are Teter 93(XC)
#
# - The Green`s function is Retarded -
# - Using the Length Gauge -
# - [r,Vnl] *is* included -
#
#   BSK|Identifier              :4
#      |Dimension               :49
#      |Bands                   :1 - 50
#      |Exchange           [res]: yes
#      |Correlation        [res]: yes
#      |Kernel`s coupling       : no
#      |Exchange           [cpl]: no
#      |Correlation        [cpl]: no
#      |W interaction is bare   : no
#      |ALDA kernel in R-space  : no
#      |RL vectors    [exchange]:437
#      |RL vectors [correlation]:515
#      |E/h energy range    [ev]:-1.000000 - -1.000000
#      |Coupling range     [o/o]: 100.0000 -  100.0000
#    W |Interaction is diagonal : no
#      |Matrix size             :515
#      |Bands                   :1 - 50
#      |e/h energy range    [ev]:-1.000000 - -1.000000
#      |Poles              [o/o]: 100.0000
#      |RL vectors in the sum   :4945
#      |[r,Vnl] included        : yes
#      |Field direction         :0.1000E-4  0.000000  0.000000
#      |Coulomb Cutoff          :none
#      |xc-Kernel               :none
#   RIM|RL components      [col]:0
#      |Random points      [col]:0
#
#    E/ev[1]      EEL-Im[2]    EEL-Re[3]    EELo-Im[4]   EELo-Re[5]
#
    0.000000    -0.000000    -0.981357    -0.000000    -0.987322
   0.2002E-1    0.3287E-6    -.9814       0.1023E-6    -.9873   
   0.4004E-1    0.6574E-6    -.9814       0.2045E-6    -.9873   
   0.6006E-1    0.9861E-6    -.9814       0.3068E-6    -.9873   
   0.8008E-1    0.1315E-5    -.9814       0.4091E-6    -.9873   
   0.1001       0.1644E-5    -.9814       0.5114E-6    -.9873   
   0.1201       0.1972E-5    -.9814       0.6137E-6    -.9873   
   0.1401       0.2301E-5    -.9814       0.7160E-6    -.9873   
   0.1602       0.2630E-5    -.9814       0.8182E-6    -.9873   
   0.1802       0.2959E-5    -.9814       0.9206E-6    -.9873   
   0.2002       0.3288E-5    -.9814       0.1023E-5    -.9873   
   0.2202       0.3617E-5    -.9814       0.1125E-5    -.9873   
   0.2402       0.3946E-5    -.9814       0.1228E-5    -.9873   
   0.2603       0.4275E-5    -.9814       0.1330E-5    -.9873   
   0.2803       0.4605E-5    -.9814       0.1432E-5    -.9873   
   0.3003       0.4934E-5    -.9813       0.1535E-5    -.9873   
   0.3203       0.5264E-5    -.9813       0.1637E-5    -.9873   
   0.3403       0.5593E-5    -.9813       0.1739E-5    -.9873   
   0.3604       0.5923E-5    -.9813       0.1842E-5    -.9873   
   0.3804       0.6253E-5    -.9813       0.1944E-5    -.9873   
   0.4004       0.6583E-5    -.9813       0.2047E-5    -.9873   
   0.4204       0.6913E-5    -.9813       0.2149E-5    -.9873   
   0.4404       0.7244E-5    -.9813       0.2252E-5    -.9873   
   0.4605       0.7574E-5    -.9813       0.2354E-5    -.9873   
   0.4805       0.7905E-5    -.9813       0.2457E-5    -.9873   
   0.5005       0.8236E-5    -.9813       0.2559E-5    -.9873   
   0.5205       0.8567E-5    -.9813       0.2662E-5    -.9873   
   0.5405       0.8898E-5    -.9813       0.2765E-5    -.9873   
   0.5606       0.9229E-5    -.9813       0.2867E-5    -.9873   
   0.5806       0.9561E-5    -.9813       0.2970E-5    -.9873   
   0.6006       0.9893E-5    -.9813       0.3073E-5    -.9873   
   0.6206       0.1022E-4    -.9813       0.3176E-5    -.9873   
   0.6406       0.1056E-4    -.9813       0.3278E-5    -.9873   
   0.6607       0.1089E-4    -.9813       0.3381E-5    -.9873   
   0.6807       0.1122E-4    -.9813       0.3484E-5    -.9873   
   0.7007       0.1156E-4    -.9813       0.3587E-5    -.9873   
   0.7207       0.1189E-4    -.9813       0.3690E-5    -.9873   
   0.7407       0.1222E-4    -.9813       0.3793E-5    -.9873   
   0.7608       0.1256E-4    -.9813       0.3896E-5    -.9873   
   0.7808       0.1289E-4    -.9813       0.3999E-5    -.9873   
   0.8008       0.1322E-4    -.9813       0.4102E-5    -.9873   
   0.8208       0.1356E-4    -.9813       0.4205E-5    -.9873   
   0.8408       0.1389E-4    -.9813       0.4308E-5    -.9873   
   0.8609       0.1423E-4    -.9813       0.4411E-5    -.9873   
   0.8809       0.1456E-4    -.9813       0.4515E-5    -.9873   
   0.9009       0.1490E-4    -.9813       0.4618E-5    -.9873   
   0.9209       0.1524E-4    -.9813       0.4721E-5    -.9873   
   0.9409       0.1557E-4    -.9813       0.4825E-5    -.9873   
   0.9610       0.1591E-4    -.9813       0.4928E-5    -.9873   
   0.9810       0.1625E-4    -.9813       0.5032E-5    -.9873   
    1.001       0.1659E-4    -.9813       0.5135E-5    -.9873   
    1.021       0.1692E-4    -.9813       0.5239E-5    -.9873   
    1.041       0.1726E-4    -.9813       0.5342E-5    -.9873   
    1.061       0.1760E-4    -.9813       0.5446E-5    -.9873   
    1.081       0.1794E-4    -.9813       0.5550E-5    -.9873   
    1.101       0.1828E-4    -.9813       0.5654E-5    -.9873   
    1.121       0.1862E-4    -.9813       0.5757E-5    -.9873   
    1.141       0.1896E-4    -.9812       0.5861E-5    -.9873   
    1.161       0.1930E-4    -.9812       0.5965E-5    -.9873   
    1.181       0.1964E-4    -.9812       0.6069E-5    -.9873   
    1.201       0.1998E-4    -.9812       0.6174E-5    -.9873   
    1.221       0.2032E-4    -.9812       0.6278E-5    -.9873   
    1.241       0.2067E-4    -.9812       0.6382E-5    -.9873   
    1.261       0.2101E-4    -.9812       0.6486E-5    -.9873   
    1.281       0.2135E-4    -.9812       0.6591E-5    -.9873   
    1.301       0.2170E-4    -.9812       0.6695E-5    -.9873   
    1.321       0.2204E-4    -.9812       0.6800E-5    -.9873   
    1.341       0.2239E-4    -.9812       0.6904E-5    -.9873   
    1.361       0.2273E-4    -.9812       0.7009E-5    -.9873   
    1.381       0.2308E-4    -.9812       0.7114E-5    -.9873   
    1.401       0.2343E-4    -.9812       0.7218E-5    -.9873   
    1.421       0.2377E-4    -.9812       0.7323E-5    -.9873   
    1.441       0.2412E-4    -.9812       0.7428E-5    -.9873   
    1.461       0.2447E-4    -.9812       0.7533E-5    -.9873   
    1.481       0.2482E-4    -.9812       0.7638E-5    -.9873   
    1.502       0.2517E-4    -.9812       0.7743E-5    -.9873   
    1.522       0.2552E-4    -.9812       0.7849E-5    -.9873   
    1.542       0.2587E-4    -.9812       0.7954E-5    -.9873   
    1.562       0.2622E-4    -.9812       0.8059E-5    -.9873   
    1.582       0.2657E-4    -.9811       0.8165E-5    -.9873   
    1.602       0.2692E-4    -.9811       0.8270E-5    -.9873   
    1.622       0.2727E-4    -.9811       0.8376E-5    -.9873   
    1.642       0.2763E-4    -.9811       0.8482E-5    -.9873   
    1.662       0.2798E-4    -.9811       0.8588E-5    -.9873   
    1.682       0.2834E-4    -.9811       0.8694E-5    -.9872   
    1.702       0.2869E-4    -.9811       0.8800E-5    -.9872   
    1.722       0.2905E-4    -.9811       0.8906E-5    -.9872   
    1.742       0.2940E-4    -.9811       0.9012E-5    -.9872   
    1.762       0.2976E-4    -.9811       0.9118E-5    -.9872   
    1.782       0.3012E-4    -.9811       0.9225E-5    -.9872   
    1.802       0.3048E-4    -.9811       0.9331E-5    -.9872   
    1.822       0.3084E-4    -.9811       0.9438E-5    -.9872   
    1.842       0.3120E-4    -.9811       0.9544E-5    -.9872   
    1.862       0.3156E-4    -.9811       0.9651E-5    -.9872   
    1.882       0.3192E-4    -.9811       0.9758E-5    -.9872   
    1.902       0.3228E-4    -.9811       0.9865E-5    -.9872   
    1.922       0.3264E-4    -.9810       0.9972E-5    -.9872   
    1.942       0.3301E-4    -.9810       0.1008E-4    -.9872   
    1.962       0.3337E-4    -.9810       0.1019E-4    -.9872   
    1.982       0.3374E-4    -.9810       0.1029E-4    -.9872   
    2.002       0.3410E-4    -.9810       0.1040E-4    -.9872   
    2.022       0.3447E-4    -.9810       0.1051E-4    -.9872   
    2.042       0.3484E-4    -.9810       0.1062E-4    -.9872   
    2.062       0.3521E-4    -.9810       0.1072E-4    -.9872   
    2.082       0.3558E-4    -.9810       0.1083E-4    -.9872   
    2.102       0.3595E-4    -.9810       0.1094E-4    -.9872   
    2.122       0.3632E-4    -.9810       0.1105E-4    -.9872   
    2.142       0.3669E-4    -.9810       0.1116E-4    -.9872   
    2.162       0.3706E-4    -.9810       0.1127E-4    -.9872   
    2.182       0.3743E-4    -.9810       0.1137E-4    -.9872   
    2.202       0.3781E-4    -.9810       0.1148E-4    -.9872   
    2.222       0.3818E-4    -.9809       0.1159E-4    -.9872   
    2.242       0.3856E-4    -.9809       0.1170E-4    -.9872   
    2.262       0.3894E-4    -.9809       0.1181E-4    -.9872   
    2.282       0.3932E-4    -.9809       0.1192E-4    -.9872   
    2.302       0.3969E-4    -.9809       0.1203E-4    -.9872   
    2.322       0.4007E-4    -.9809       0.1214E-4    -.9872   
    2.342       0.4045E-4    -.9809       0.1225E-4    -.9872   
    2.362       0.4084E-4    -.9809       0.1236E-4    -.9872   
    2.382       0.4122E-4    -.9809       0.1247E-4    -.9872   
    2.402       0.4160E-4    -.9809       0.1258E-4    -.9872   
    2.422       0.4199E-4    -.9809       0.1269E-4    -.9872   
    2.442       0.4237E-4    -.9809       0.1280E-4    -.9872   
    2.462       0.4276E-4    -.9808       0.1291E-4    -.9872   
    2.482       0.4315E-4    -.9808       0.1302E-4    -.9872   
    2.503       0.4354E-4    -.9808       0.1313E-4    -.9872   
    2.523       0.4393E-4    -.9808       0.1324E-4    -.9872   
    2.543       0.4432E-4    -.9808       0.1335E-4    -.9872   
    2.563       0.4471E-4    -.9808       0.1346E-4    -.9872   
    2.583       0.4510E-4    -.9808       0.1357E-4    -.9871   
    2.603       0.4550E-4    -.9808       0.1368E-4    -.9871   
    2.623       0.4589E-4    -.9808       0.1379E-4    -.9871   
    2.643       0.4629E-4    -.9808       0.1390E-4    -.9871   
    2.663       0.4669E-4    -.9808       0.1402E-4    -.9871   
    2.683       0.4708E-4    -.9807       0.1413E-4    -.9871   
    2.703       0.4748E-4    -.9807       0.1424E-4    -.9871   
    2.723       0.4788E-4    -.9807       0.1435E-4    -.9871   
    2.743       0.4829E-4    -.9807       0.1446E-4    -.9871   
    2.763       0.4869E-4    -.9807       0.1458E-4    -.9871   
    2.783       0.4909E-4    -.9807       0.1469E-4    -.9871   
    2.803       0.4950E-4    -.9807       0.1480E-4    -.9871   
    2.823       0.4991E-4    -.9807       0.1492E-4    -.9871   
    2.843       0.5031E-4    -.9807       0.1503E-4    -.9871   
    2.863       0.5072E-4    -.9807       0.1514E-4    -.9871   
    2.883       0.5113E-4    -.9806       0.1525E-4    -.9871   
    2.903       0.5155E-4    -.9806       0.1537E-4    -.9871   
    2.923       0.5196E-4    -.9806       0.1548E-4    -.9871   
    2.943       0.5237E-4    -.9806       0.1560E-4    -.9871   
    2.963       0.5279E-4    -.9806       0.1571E-4    -.9871   
    2.983       0.5321E-4    -.9806       0.1582E-4    -.9871   
    3.003       0.5362E-4    -.9806       0.1594E-4    -.9871   
    3.023       0.5404E-4    -.9806       0.1605E-4    -.9871   
    3.043       0.5446E-4    -.9806       0.1617E-4    -.9871   
    3.063       0.5489E-4    -.9806       0.1628E-4    -.9871   
    3.083       0.5531E-4    -.9805       0.1640E-4    -.9871   
    3.103       0.5574E-4    -.9805       0.1651E-4    -.9871   
    3.123       0.5616E-4    -.9805       0.1663E-4    -.9871   
    3.143       0.5659E-4    -.9805       0.1674E-4    -.9871   
    3.163       0.5702E-4    -.9805       0.1686E-4    -.9871   
    3.183       0.5745E-4    -.9805       0.1698E-4    -.9871   
    3.203       0.5788E-4    -.9805       0.1709E-4    -.9871   
    3.223       0.5832E-4    -.9805       0.1721E-4    -.9871   
    3.243       0.5875E-4    -.9805       0.1733E-4    -.9870   
    3.263       0.5919E-4    -.9804       0.1744E-4    -.9870   
    3.283       0.5963E-4    -.9804       0.1756E-4    -.9870   
    3.303       0.6007E-4    -.9804       0.1768E-4    -.9870   
    3.323       0.6051E-4    -.9804       0.1779E-4    -.9870   
    3.343       0.6095E-4    -.9804       0.1791E-4    -.9870   
    3.363       0.6139E-4    -.9804       0.1803E-4    -.9870   
    3.383       0.6184E-4    -.9804       0.1815E-4    -.9870   
    3.403       0.6229E-4    -.9804       0.1826E-4    -.9870   
    3.423       0.6274E-4    -.9803       0.1838E-4    -.9870   
    3.443       0.6319E-4    -.9803       0.1850E-4    -.9870   
    3.463       0.6364E-4    -.9803       0.1862E-4    -.9870   
    3.483       0.6409E-4    -.9803       0.1874E-4    -.9870   
    3.504       0.6455E-4    -.9803       0.1886E-4    -.9870   
    3.524       0.6501E-4    -.9803       0.1898E-4    -.9870   
    3.544       0.6547E-4    -.9803       0.1910E-4    -.9870   
    3.564       0.6593E-4    -.9803       0.1922E-4    -.9870   
    3.584       0.6639E-4    -.9802       0.1934E-4    -.9870   
    3.604       0.6685E-4    -.9802       0.1946E-4    -.9870   
    3.624       0.6732E-4    -.9802       0.1958E-4    -.9870   
    3.644       0.6779E-4    -.9802       0.1970E-4    -.9870   
    3.664       0.6826E-4    -.9802       0.1982E-4    -.9870   
    3.684       0.6873E-4    -.9802       0.1994E-4    -.9870   
    3.704       0.6920E-4    -.9802       0.2006E-4    -.9870   
    3.724       0.6968E-4    -.9801       0.2018E-4    -.9870   
    3.744       0.7015E-4    -.9801       0.2030E-4    -.9870   
    3.764       0.7063E-4    -.9801       0.2042E-4    -.9869   
    3.784       0.7111E-4    -.9801       0.2055E-4    -.9869   
    3.804       0.7160E-4    -.9801       0.2067E-4    -.9869   
    3.824       0.7208E-4    -.9801       0.2079E-4    -.9869   
    3.844       0.7257E-4    -.9801       0.2091E-4    -.9869   
    3.864       0.7306E-4    -.9800       0.2104E-4    -.9869   
    3.884       0.7355E-4    -.9800       0.2116E-4    -.9869   
    3.904       0.7404E-4    -.9800       0.2128E-4    -.9869   
    3.924       0.7453E-4    -.9800       0.2141E-4    -.9869   
    3.944       0.7503E-4    -.9800       0.2153E-4    -.9869   
    3.964       0.7553E-4    -.9800       0.2166E-4    -.9869   
    3.984       0.7603E-4    -.9800       0.2178E-4    -.9869   
    4.004       0.7653E-4    -.9799       0.2191E-4    -.9869   
    4.024       0.7704E-4    -.9799       0.2203E-4    -.9869   
    4.044       0.7754E-4    -.9799       0.2216E-4    -.9869   
    4.064       0.7805E-4    -.9799       0.2228E-4    -.9869   
    4.084       0.7857E-4    -.9799       0.2241E-4    -.9869   
    4.104       0.7908E-4    -.9799       0.2253E-4    -.9869   
    4.124       0.7959E-4    -.9798       0.2266E-4    -.9869   
    4.144       0.8011E-4    -.9798       0.2279E-4    -.9869   
    4.164       0.8063E-4    -.9798       0.2291E-4    -.9869   
    4.184       0.8115E-4    -.9798       0.2304E-4    -.9869   
    4.204       0.8168E-4    -.9798       0.2317E-4    -.9869   
    4.224       0.8221E-4    -.9798       0.2329E-4    -.9868   
    4.244       0.8274E-4    -.9797       0.2342E-4    -.9868   
    4.264       0.8327E-4    -.9797       0.2355E-4    -.9868   
    4.284       0.8380E-4    -.9797       0.2368E-4    -.9868   
    4.304       0.8434E-4    -.9797       0.2381E-4    -.9868   
    4.324       0.8488E-4    -.9797       0.2394E-4    -.9868   
    4.344       0.8542E-4    -.9797       0.2406E-4    -.9868   
    4.364       0.8596E-4    -.9796       0.2419E-4    -.9868   
    4.384       0.8651E-4    -.9796       0.2432E-4    -.9868   
    4.404       0.8706E-4    -.9796       0.2445E-4    -.9868   
    4.424       0.8761E-4    -.9796       0.2458E-4    -.9868   
    4.444       0.8816E-4    -.9796       0.2471E-4    -.9868   
    4.464       0.8872E-4    -.9796       0.2485E-4    -.9868   
    4.484       0.8928E-4    -.9795       0.2498E-4    -.9868   
    4.505       0.8984E-4    -.9795       0.2511E-4    -.9868   
    4.525       0.9040E-4    -.9795       0.2524E-4    -.9868   
    4.545       0.9097E-4    -.9795       0.2537E-4    -.9868   
    4.565       0.9154E-4    -.9795       0.2550E-4    -.9868   
    4.585       0.9211E-4    -.9794       0.2564E-4    -.9868   
    4.605       0.9269E-4    -.9794       0.2577E-4    -.9868   
    4.625       0.9327E-4    -.9794       0.2590E-4    -.9868   
    4.645       0.9385E-4    -.9794       0.2604E-4    -.9867   
    4.665       0.9443E-4    -.9794       0.2617E-4    -.9867   
    4.685       0.9502E-4    -.9794       0.2630E-4    -.9867   
    4.705       0.9561E-4    -.9793       0.2644E-4    -.9867   
    4.725       0.9620E-4    -.9793       0.2657E-4    -.9867   
    4.745       0.9679E-4    -.9793       0.2671E-4    -.9867   
    4.765       0.9739E-4    -.9793       0.2684E-4    -.9867   
    4.785       0.9799E-4    -.9793       0.2698E-4    -.9867   
    4.805       0.9860E-4    -.9792       0.2711E-4    -.9867   
    4.825       0.9920E-4    -.9792       0.2725E-4    -.9867   
    4.845       0.9981E-4    -.9792       0.2739E-4    -.9867   
    4.865       0.1004E-3    -.9792       0.2752E-4    -.9867   
    4.885       0.1010E-3    -.9792       0.2766E-4    -.9867   
    4.905       0.1017E-3    -.9791       0.2780E-4    -.9867   
    4.925       0.1023E-3    -.9791       0.2794E-4    -.9867   
    4.945       0.1029E-3    -.9791       0.2808E-4    -.9867   
    4.965       0.1035E-3    -.9791       0.2821E-4    -.9867   
    4.985       0.1042E-3    -.9791       0.2835E-4    -.9867   
    5.005       0.1048E-3    -.9790       0.2849E-4    -.9866   
    5.025       0.1054E-3    -.9790       0.2863E-4    -.9866   
    5.045       0.1061E-3    -.9790       0.2877E-4    -.9866   
    5.065       0.1067E-3    -.9790       0.2891E-4    -.9866   
    5.085       0.1074E-3    -.9790       0.2905E-4    -.9866   
    5.105       0.1080E-3    -.9789       0.2919E-4    -.9866   
    5.125       0.1087E-3    -.9789       0.2933E-4    -.9866   
    5.145       0.1093E-3    -.9789       0.2948E-4    -.9866   
    5.165       0.1100E-3    -.9789       0.2962E-4    -.9866   
    5.185       0.1107E-3    -.9788       0.2976E-4    -.9866   
    5.205       0.1113E-3    -.9788       0.2990E-4    -.9866   
    5.225       0.1120E-3    -.9788       0.3005E-4    -.9866   
    5.245       0.1127E-3    -.9788       0.3019E-4    -.9866   
    5.265       0.1134E-3    -.9788       0.3033E-4    -.9866   
    5.285       0.1141E-3    -.9787       0.3048E-4    -.9866   
    5.305       0.1147E-3    -.9787       0.3062E-4    -.9866   
    5.325       0.1154E-3    -.9787       0.3077E-4    -.9866   
    5.345       0.1161E-3    -.9787       0.3091E-4    -.9865   
    5.365       0.1168E-3    -.9786       0.3106E-4    -.9865   
    5.385       0.1175E-3    -.9786       0.3120E-4    -.9865   
    5.405       0.1182E-3    -.9786       0.3135E-4    -.9865   
    5.425       0.1190E-3    -.9786       0.3150E-4    -.9865   
    5.445       0.1197E-3    -.9785       0.3164E-4    -.9865   
    5.465       0.1204E-3    -.9785       0.3179E-4    -.9865   
    5.485       0.1211E-3    -.9785       0.3194E-4    -.9865   
    5.506       0.1218E-3    -.9785       0.3209E-4    -.9865   
    5.526       0.1226E-3    -.9784       0.3224E-4    -.9865   
    5.546       0.1233E-3    -.9784       0.3239E-4    -.9865   
    5.566       0.1240E-3    -.9784       0.3254E-4    -.9865   
    5.586       0.1248E-3    -.9784       0.3269E-4    -.9865   
    5.606       0.1255E-3    -.9783       0.3284E-4    -.9865   
    5.626       0.1263E-3    -.9783       0.3299E-4    -.9865   
    5.646       0.1271E-3    -.9783       0.3314E-4    -.9864   
    5.666       0.1278E-3    -.9783       0.3329E-4    -.9864   
    5.686       0.1286E-3    -.9782       0.3344E-4    -.9864   
    5.706       0.1294E-3    -.9782       0.3360E-4    -.9864   
    5.726       0.1301E-3    -.9782       0.3375E-4    -.9864   
    5.746       0.1309E-3    -.9782       0.3390E-4    -.9864   
    5.766       0.1317E-3    -.9781       0.3406E-4    -.9864   
    5.786       0.1325E-3    -.9781       0.3421E-4    -.9864   
    5.806       0.1333E-3    -.9781       0.3436E-4    -.9864   
    5.826       0.1341E-3    -.9781       0.3452E-4    -.9864   
    5.846       0.1349E-3    -.9780       0.3467E-4    -.9864   
    5.866       0.1357E-3    -.9780       0.3483E-4    -.9864   
    5.886       0.1365E-3    -.9780       0.3499E-4    -.9864   
    5.906       0.1373E-3    -.9780       0.3514E-4    -.9864   
    5.926       0.1381E-3    -.9779       0.3530E-4    -.9864   
    5.946       0.1390E-3    -.9779       0.3546E-4    -.9863   
    5.966       0.1398E-3    -.9779       0.3562E-4    -.9863   
    5.986       0.1406E-3    -.9778       0.3578E-4    -.9863   
    6.006       0.1415E-3    -.9778       0.3593E-4    -.9863   
    6.026       0.1423E-3    -.9778       0.3609E-4    -.9863   
    6.046       0.1432E-3    -.9778       0.3625E-4    -.9863   
    6.066       0.1441E-3    -.9777       0.3642E-4    -.9863   
    6.086       0.1449E-3    -.9777       0.3658E-4    -.9863   
    6.106       0.1458E-3    -.9777       0.3674E-4    -.9863   
    6.126       0.1467E-3    -.9776       0.3690E-4    -.9863   
    6.146       0.1476E-3    -.9776       0.3706E-4    -.9863   
    6.166       0.1484E-3    -.9776       0.3722E-4    -.9863   
    6.186       0.1493E-3    -.9776       0.3739E-4    -.9863   
    6.206       0.1502E-3    -.9775       0.3755E-4    -.9863   
    6.226       0.1511E-3    -.9775       0.3772E-4    -.9862   
    6.246       0.1520E-3    -.9775       0.3788E-4    -.9862   
    6.266       0.1530E-3    -.9774       0.3805E-4    -.9862   
    6.286       0.1539E-3    -.9774       0.3821E-4    -.9862   
    6.306       0.1548E-3    -.9774       0.3838E-4    -.9862   
    6.326       0.1558E-3    -.9773       0.3855E-4    -.9862   
    6.346       0.1567E-3    -.9773       0.3871E-4    -.9862   
    6.366       0.1576E-3    -.9773       0.3888E-4    -.9862   
    6.386       0.1586E-3    -.9772       0.3905E-4    -.9862   
    6.406       0.1596E-3    -.9772       0.3922E-4    -.9862   
    6.426       0.1605E-3    -.9772       0.3939E-4    -.9862   
    6.446       0.1615E-3    -.9771       0.3956E-4    -.9862   
    6.466       0.1625E-3    -.9771       0.3973E-4    -.9862   
    6.486       0.1635E-3    -.9771       0.3990E-4    -.9861   
    6.507       0.1645E-3    -.9770       0.4007E-4    -.9861   
    6.527       0.1655E-3    -.9770       0.4024E-4    -.9861   
    6.547       0.1665E-3    -.9770       0.4042E-4    -.9861   
    6.567       0.1675E-3    -.9769       0.4059E-4    -.9861   
    6.587       0.1685E-3    -.9769       0.4076E-4    -.9861   
    6.607       0.1695E-3    -.9769       0.4094E-4    -.9861   
    6.627       0.1706E-3    -.9768       0.4111E-4    -.9861   
    6.647       0.1716E-3    -.9768       0.4129E-4    -.9861   
    6.667       0.1726E-3    -.9768       0.4146E-4    -.9861   
    6.687       0.1737E-3    -.9767       0.4164E-4    -.9861   
    6.707       0.1748E-3    -.9767       0.4182E-4    -.9861   
    6.727       0.1758E-3    -.9767       0.4199E-4    -.9860   
    6.747       0.1769E-3    -.9766       0.4217E-4    -.9860   
    6.767       0.1780E-3    -.9766       0.4235E-4    -.9860   
    6.787       0.1791E-3    -.9766       0.4253E-4    -.9860   
    6.807       0.1802E-3    -.9765       0.4271E-4    -.9860   
    6.827       0.1813E-3    -.9765       0.4289E-4    -.9860   
    6.847       0.1824E-3    -.9765       0.4307E-4    -.9860   
    6.867       0.1836E-3    -.9764       0.4325E-4    -.9860   
    6.887       0.1847E-3    -.9764       0.4344E-4    -.9860   
    6.907       0.1858E-3    -.9763       0.4362E-4    -.9860   
    6.927       0.1870E-3    -.9763       0.4380E-4    -.9860   
    6.947       0.1881E-3    -.9763       0.4399E-4    -.9859   
    6.967       0.1893E-3    -.9762       0.4417E-4    -.9859   
    6.987       0.1905E-3    -.9762       0.4436E-4    -.9859   
    7.007       0.1917E-3    -.9762       0.4454E-4    -.9859   
    7.027       0.1929E-3    -.9761       0.4473E-4    -.9859   
    7.047       0.1941E-3    -.9761       0.4492E-4    -.9859   
    7.067       0.1953E-3    -.9760       0.4511E-4    -.9859   
    7.087       0.1965E-3    -.9760       0.4530E-4    -.9859   
    7.107       0.1977E-3    -.9760       0.4548E-4    -.9859   
    7.127       0.1990E-3    -.9759       0.4567E-4    -.9859   
    7.147       0.2002E-3    -.9759       0.4587E-4    -.9859   
    7.167       0.2015E-3    -.9758       0.4606E-4    -.9859   
    7.187       0.2027E-3    -.9758       0.4625E-4    -.9858   
    7.207       0.2040E-3    -.9758       0.4644E-4    -.9858   
    7.227       0.2053E-3    -.9757       0.4663E-4    -.9858   
    7.247       0.2066E-3    -.9757       0.4683E-4    -.9858   
    7.267       0.2079E-3    -.9756       0.4702E-4    -.9858   
    7.287       0.2092E-3    -.9756       0.4722E-4    -.9858   
    7.307       0.2106E-3    -.9756       0.4741E-4    -.9858   
    7.327       0.2119E-3    -.9755       0.4761E-4    -.9858   
    7.347       0.2132E-3    -.9755       0.4781E-4    -.9858   
    7.367       0.2146E-3    -.9754       0.4801E-4    -.9858   
    7.387       0.2160E-3    -.9754       0.4820E-4    -.9857   
    7.407       0.2174E-3    -.9753       0.4840E-4    -.9857   
    7.427       0.2187E-3    -.9753       0.4860E-4    -.9857   
    7.447       0.2201E-3    -.9753       0.4881E-4    -.9857   
    7.467       0.2216E-3    -.9752       0.4901E-4    -.9857   
    7.487       0.2230E-3    -.9752       0.4921E-4    -.9857   
    7.508       0.2244E-3    -.9751       0.4941E-4    -.9857   
    7.528       0.2259E-3    -.9751       0.4962E-4    -.9857   
    7.548       0.2273E-3    -.9750       0.4982E-4    -.9857   
    7.568       0.2288E-3    -.9750       0.5003E-4    -.9857   
    7.588       0.2303E-3    -.9749       0.5023E-4    -.9856   
    7.608       0.2318E-3    -.9749       0.5044E-4    -.9856   
    7.628       0.2333E-3    -.9748       0.5065E-4    -.9856   
    7.648       0.2348E-3    -.9748       0.5085E-4    -.9856   
    7.668       0.2363E-3    -.9748       0.5106E-4    -.9856   
    7.688       0.2379E-3    -.9747       0.5127E-4    -.9856   
    7.708       0.2394E-3    -.9747       0.5148E-4    -.9856   
    7.728       0.2410E-3    -.9746       0.5170E-4    -.9856   
    7.748       0.2426E-3    -.9746       0.5191E-4    -.9856   
    7.768       0.2442E-3    -.9745       0.5212E-4    -.9856   
    7.788       0.2458E-3    -.9745       0.5233E-4    -.9855   
    7.808       0.2474E-3    -.9744       0.5255E-4    -.9855   
    7.828       0.2491E-3    -.9744       0.5276E-4    -.9855   
    7.848       0.2507E-3    -.9743       0.5298E-4    -.9855   
    7.868       0.2524E-3    -.9743       0.5320E-4    -.9855   
    7.888       0.2541E-3    -.9742       0.5342E-4    -.9855   
    7.908       0.2558E-3    -.9742       0.5363E-4    -.9855   
    7.928       0.2575E-3    -.9741       0.5385E-4    -.9855   
    7.948       0.2592E-3    -.9741       0.5407E-4    -.9855   
    7.968       0.2610E-3    -.9740       0.5430E-4    -.9854   
    7.988       0.2627E-3    -.9740       0.5452E-4    -.9854   
    8.008       0.2645E-3    -.9739       0.5474E-4    -.9854   
    8.028       0.2663E-3    -.9738       0.5496E-4    -.9854   
    8.048       0.2681E-3    -.9738       0.5519E-4    -.9854   
    8.068       0.2699E-3    -.9737       0.5541E-4    -.9854   
    8.088       0.2717E-3    -.9737       0.5564E-4    -.9854   
    8.108       0.2736E-3    -.9736       0.5587E-4    -.9854   
    8.128       0.2754E-3    -.9736       0.5610E-4    -.9854   
    8.148       0.2773E-3    -.9735       0.5632E-4    -.9854   
    8.168       0.2792E-3    -.9735       0.5655E-4    -.9853   
    8.188       0.2811E-3    -.9734       0.5679E-4    -.9853   
    8.208       0.2831E-3    -.9734       0.5702E-4    -.9853   
    8.228       0.2850E-3    -.9733       0.5725E-4    -.9853   
    8.248       0.2870E-3    -.9732       0.5748E-4    -.9853   
    8.268       0.2890E-3    -.9732       0.5772E-4    -.9853   
    8.288       0.2910E-3    -.9731       0.5795E-4    -.9853   
    8.308       0.2930E-3    -.9731       0.5819E-4    -.9853   
    8.328       0.2951E-3    -.9730       0.5843E-4    -.9852   
    8.348       0.2971E-3    -.9729       0.5867E-4    -.9852   
    8.368       0.2992E-3    -.9729       0.5891E-4    -.9852   
    8.388       0.3013E-3    -.9728       0.5915E-4    -.9852   
    8.408       0.3035E-3    -.9728       0.5939E-4    -.9852   
    8.428       0.3056E-3    -.9727       0.5963E-4    -.9852   
    8.448       0.3078E-3    -.9726       0.5987E-4    -.9852   
    8.468       0.3100E-3    -.9726       0.6012E-4    -.9852   
    8.488       0.3122E-3    -.9725       0.6036E-4    -.9852   
    8.509       0.3144E-3    -.9725       0.6061E-4    -.9851   
    8.529       0.3166E-3    -.9724       0.6085E-4    -.9851   
    8.549       0.3189E-3    -.9723       0.6110E-4    -.9851   
    8.569       0.3212E-3    -.9723       0.6135E-4    -.9851   
    8.589       0.3235E-3    -.9722       0.6160E-4    -.9851   
    8.609       0.3258E-3    -.9721       0.6185E-4    -.9851   
    8.629       0.3282E-3    -.9721       0.6211E-4    -.9851   
    8.649       0.3306E-3    -.9720       0.6236E-4    -.9851   
    8.669       0.3330E-3    -.9719       0.6261E-4    -.9850   
    8.689       0.3354E-3    -.9719       0.6287E-4    -.9850   
    8.709       0.3379E-3    -.9718       0.6313E-4    -.9850   
    8.729       0.3404E-3    -.9717       0.6338E-4    -.9850   
    8.749       0.3429E-3    -.9717       0.6364E-4    -.9850   
    8.769       0.3454E-3    -.9716       0.6390E-4    -.9850   
    8.789       0.3480E-3    -.9715       0.6416E-4    -.9850   
    8.809       0.3505E-3    -.9715       0.6443E-4    -.9850   
    8.829       0.3531E-3    -.9714       0.6469E-4    -.9849   
    8.849       0.3558E-3    -.9713       0.6495E-4    -.9849   
    8.869       0.3584E-3    -.9712       0.6522E-4    -.9849   
    8.889       0.3611E-3    -.9712       0.6549E-4    -.9849   
    8.909       0.3638E-3    -.9711       0.6575E-4    -.9849   
    8.929       0.3666E-3    -.9710       0.6602E-4    -.9849   
    8.949       0.3694E-3    -.9710       0.6629E-4    -.9849   
    8.969       0.3722E-3    -.9709       0.6656E-4    -.9848   
    8.989       0.3750E-3    -.9708       0.6684E-4    -.9848   
    9.009       0.3779E-3    -.9707       0.6711E-4    -.9848   
    9.029       0.3808E-3    -.9707       0.6738E-4    -.9848   
    9.049       0.3837E-3    -.9706       0.6766E-4    -.9848   
    9.069       0.3866E-3    -.9705       0.6794E-4    -.9848   
    9.089       0.3896E-3    -.9704       0.6822E-4    -.9848   
    9.109       0.3926E-3    -.9703       0.6850E-4    -.9848   
    9.129       0.3957E-3    -.9703       0.6878E-4    -.9847   
    9.149       0.3988E-3    -.9702       0.6906E-4    -.9847   
    9.169       0.4019E-3    -.9701       0.6934E-4    -.9847   
    9.189       0.4051E-3    -.9700       0.6963E-4    -.9847   
    9.209       0.4082E-3    -.9699       0.6991E-4    -.9847   
    9.229       0.4115E-3    -.9699       0.7020E-4    -.9847   
    9.249       0.4147E-3    -.9698       0.7049E-4    -.9847   
    9.269       0.4180E-3    -.9697       0.7078E-4    -.9846   
    9.289       0.4213E-3    -.9696       0.7107E-4    -.9846   
    9.309       0.4247E-3    -.9695       0.7136E-4    -.9846   
    9.329       0.4281E-3    -.9694       0.7166E-4    -.9846   
    9.349       0.4316E-3    -.9694       0.7195E-4    -.9846   
    9.369       0.4350E-3    -.9693       0.7225E-4    -.9846   
    9.389       0.4386E-3    -.9692       0.7255E-4    -.9846   
    9.409       0.4421E-3    -.9691       0.7284E-4    -.9845   
    9.429       0.4457E-3    -.9690       0.7314E-4    -.9845   
    9.449       0.4494E-3    -.9689       0.7345E-4    -.9845   
    9.469       0.4531E-3    -.9688       0.7375E-4    -.9845   
    9.489       0.4568E-3    -.9687       0.7406E-4    -.9845   
    9.510       0.4606E-3    -.9686       0.7436E-4    -.9845   
    9.530       0.4644E-3    -.9686       0.7467E-4    -.9845   
    9.550       0.4683E-3    -.9685       0.7498E-4    -.9844   
    9.570       0.4722E-3    -.9684       0.7529E-4    -.9844   
    9.590       0.4761E-3    -.9683       0.7560E-4    -.9844   
    9.610       0.4801E-3    -.9682       0.7591E-4    -.9844   
    9.630       0.4842E-3    -.9681       0.7623E-4    -.9844   
    9.650       0.4883E-3    -.9680       0.7654E-4    -.9844   
    9.670       0.4925E-3    -.9679       0.7686E-4    -.9843   
    9.690       0.4967E-3    -.9678       0.7718E-4    -.9843   
    9.710       0.5009E-3    -.9677       0.7750E-4    -.9843   
    9.730       0.5052E-3    -.9676       0.7783E-4    -.9843   
    9.750       0.5096E-3    -.9675       0.7815E-4    -.9843   
    9.770       0.5140E-3    -.9674       0.7847E-4    -.9843   
    9.790       0.5185E-3    -.9673       0.7880E-4    -.9843   
    9.810       0.5230E-3    -.9672       0.7913E-4    -.9842   
    9.830       0.5276E-3    -.9671       0.7946E-4    -.9842   
    9.850       0.5322E-3    -.9670       0.7979E-4    -.9842   
    9.870       0.5369E-3    -.9669       0.8013E-4    -.9842   
    9.890       0.5417E-3    -.9667       0.8046E-4    -.9842   
    9.910       0.5465E-3    -.9666       0.8080E-4    -.9842   
    9.930       0.5514E-3    -.9665       0.8114E-4    -.9841   
    9.950       0.5563E-3    -.9664       0.8148E-4    -.9841   
    9.970       0.5613E-3    -.9663       0.8182E-4    -.9841   
    9.990       0.5664E-3    -.9662       0.8216E-4    -.9841   
    10.01       0.5715E-3    -.9661       0.8250E-4    -.9841   
    10.03       0.5767E-3    -.9660       0.8285E-4    -.9841   
    10.05       0.5820E-3    -.9658       0.8320E-4    -.9840   
    10.07       0.5873E-3    -.9657       0.8355E-4    -.9840   
    10.09       0.5927E-3    -.9656       0.8390E-4    -.9840   
    10.11       0.5982E-3    -.9655       0.8426E-4    -.9840   
    10.13       0.6038E-3    -.9654       0.8461E-4    -.9840   
    10.15       0.6094E-3    -.9653       0.8497E-4    -.9840   
    10.17       0.6151E-3    -.9651       0.8533E-4    -.9839   
    10.19       0.6209E-3    -.9650       0.8569E-4    -.9839   
    10.21       0.6268E-3    -.9649       0.8605E-4    -.9839   
    10.23       0.6328E-3    -.9648       0.8641E-4    -.9839   
    10.25       0.6388E-3    -.9646       0.8678E-4    -.9839   
    10.27       0.6449E-3    -.9645       0.8715E-4    -.9839   
    10.29       0.6511E-3    -.9644       0.8752E-4    -.9838   
    10.31       0.6574E-3    -.9642       0.8789E-4    -.9838   
    10.33       0.6638E-3    -.9641       0.8826E-4    -.9838   
    10.35       0.6702E-3    -.9640       0.8864E-4    -.9838   
    10.37       0.6768E-3    -.9638       0.8902E-4    -.9838   
    10.39       0.6835E-3    -.9637       0.8940E-4    -.9837   
    10.41       0.6902E-3    -.9636       0.8978E-4    -.9837   
    10.43       0.6971E-3    -.9634       0.9016E-4    -.9837   
    10.45       0.7040E-3    -.9633       0.9055E-4    -.9837   
    10.47       0.7111E-3    -.9631       0.9093E-4    -.9837   
    10.49       0.7182E-3    -.9630       0.9132E-4    -.9837   
    10.51       0.7255E-3    -.9629       0.9172E-4    -.9836   
    10.53       0.7328E-3    -.9627       0.9211E-4    -.9836   
    10.55       0.7403E-3    -.9626       0.9251E-4    -.9836   
    10.57       0.7479E-3    -.9624       0.9290E-4    -.9836   
    10.59       0.7556E-3    -.9623       0.9330E-4    -.9836   
    10.61       0.7634E-3    -.9621       0.9370E-4    -.9835   
    10.63       0.7714E-3    -.9620       0.9411E-4    -.9835   
    10.65       0.7794E-3    -.9618       0.9452E-4    -.9835   
    10.67       0.7876E-3    -.9617       0.9492E-4    -.9835   
    10.69       0.7959E-3    -.9615       0.9533E-4    -.9835   
    10.71       0.8044E-3    -.9613       0.9575E-4    -.9835   
    10.73       0.8129E-3    -.9612       0.9616E-4    -.9834   
    10.75       0.8217E-3    -.9610       0.9658E-4    -.9834   
    10.77       0.8305E-3    -.9608       0.9700E-4    -.9834   
    10.79       0.8395E-3    -.9607       0.9742E-4    -.9834   
    10.81       0.8486E-3    -.9605       0.9784E-4    -.9834   
    10.83       0.8579E-3    -.9603       0.9827E-4    -.9833   
    10.85       0.8673E-3    -.9602       0.9870E-4    -.9833   
    10.87       0.8769E-3    -.9600       0.9913E-4    -.9833   
    10.89       0.8867E-3    -.9598       0.9956E-4    -.9833   
    10.91       0.8966E-3    -.9596       0.1000E-3    -.9833   
    10.93       0.9066E-3    -.9595       0.1004E-3    -.9832   
    10.95       0.9168E-3    -.9593       0.1009E-3    -.9832   
    10.97       0.9273E-3    -.9591       0.1013E-3    -.9832   
    10.99       0.9378E-3    -.9589       0.1018E-3    -.9832   
    11.01       0.9486E-3    -.9587       0.1022E-3    -.9832   
    11.03       0.9595E-3    -.9585       0.1027E-3    -.9831   
    11.05       0.9707E-3    -.9583       0.1031E-3    -.9831   
    11.07       0.9820E-3    -.9581       0.1036E-3    -.9831   
    11.09       0.9935E-3    -.9579       0.1040E-3    -.9831   
    11.11       0.1005E-2    -.9577       0.1045E-3    -.9831   
    11.13       0.1017E-2    -.9575       0.1050E-3    -.9830   
    11.15       0.1029E-2    -.9573       0.1054E-3    -.9830   
    11.17       0.1042E-2    -.9571       0.1059E-3    -.9830   
    11.19       0.1054E-2    -.9569       0.1064E-3    -.9830   
    11.21       0.1067E-2    -.9567       0.1068E-3    -.9829   
    11.23       0.1080E-2    -.9565       0.1073E-3    -.9829   
    11.25       0.1093E-2    -.9563       0.1078E-3    -.9829   
    11.27       0.1107E-2    -.9561       0.1083E-3    -.9829   
    11.29       0.1121E-2    -.9558       0.1088E-3    -.9829   
    11.31       0.1135E-2    -.9556       0.1092E-3    -.9828   
    11.33       0.1149E-2    -.9554       0.1097E-3    -.9828   
    11.35       0.1163E-2    -.9551       0.1102E-3    -.9828   
    11.37       0.1178E-2    -.9549       0.1107E-3    -.9828   
    11.39       0.1193E-2    -.9547       0.1112E-3    -.9827   
    11.41       0.1209E-2    -.9544       0.1117E-3    -.9827   
    11.43       0.1224E-2    -.9542       0.1122E-3    -.9827   
    11.45       0.1240E-2    -.9539       0.1127E-3    -.9827   
    11.47       0.1257E-2    -.9537       0.1132E-3    -.9827   
    11.49       0.1273E-2    -.9534       0.1138E-3    -.9826   
    11.51       0.1290E-2    -.9532       0.1143E-3    -.9826   
    11.53       0.1308E-2    -.9529       0.1148E-3    -.9826   
    11.55       0.1325E-2    -.9527       0.1153E-3    -.9826   
    11.57       0.1343E-2    -.9524       0.1158E-3    -.9825   
    11.59       0.1362E-2    -.9521       0.1164E-3    -.9825   
    11.61       0.1380E-2    -.9519       0.1169E-3    -.9825   
    11.63       0.1399E-2    -.9516       0.1174E-3    -.9825   
    11.65       0.1419E-2    -.9513       0.1180E-3    -.9825   
    11.67       0.1439E-2    -.9510       0.1185E-3    -.9824   
    11.69       0.1459E-2    -.9507       0.1191E-3    -.9824   
    11.71       0.1480E-2    -.9504       0.1196E-3    -.9824   
    11.73       0.1501E-2    -.9501       0.1202E-3    -.9824   
    11.75       0.1523E-2    -.9498       0.1207E-3    -.9823   
    11.77       0.1545E-2    -.9495       0.1213E-3    -.9823   
    11.79       0.1568E-2    -.9492       0.1218E-3    -.9823   
    11.81       0.1591E-2    -.9489       0.1224E-3    -.9823   
    11.83       0.1615E-2    -.9486       0.1230E-3    -.9822   
    11.85       0.1639E-2    -.9482       0.1236E-3    -.9822   
    11.87       0.1664E-2    -.9479       0.1241E-3    -.9822   
    11.89       0.1689E-2    -.9476       0.1247E-3    -.9822   
    11.91       0.1715E-2    -.9472       0.1253E-3    -.9821   
    11.93       0.1741E-2    -.9469       0.1259E-3    -.9821   
    11.95       0.1768E-2    -.9466       0.1265E-3    -.9821   
    11.97       0.1796E-2    -.9462       0.1271E-3    -.9821   
    11.99       0.1825E-2    -.9458       0.1277E-3    -.9820   
    12.01       0.1854E-2    -.9455       0.1283E-3    -.9820   
    12.03       0.1883E-2    -.9451       0.1289E-3    -.9820   
    12.05       0.1914E-2    -.9447       0.1295E-3    -.9820   
    12.07       0.1945E-2    -.9443       0.1301E-3    -.9819   
    12.09       0.1977E-2    -.9439       0.1307E-3    -.9819   
    12.11       0.2010E-2    -.9435       0.1313E-3    -.9819   
    12.13       0.2044E-2    -.9431       0.1320E-3    -.9819   
    12.15       0.2078E-2    -.9427       0.1326E-3    -.9818   
    12.17       0.2114E-2    -.9423       0.1332E-3    -.9818   
    12.19       0.2150E-2    -.9419       0.1339E-3    -.9818   
    12.21       0.2187E-2    -.9414       0.1345E-3    -.9817   
    12.23       0.2225E-2    -.9410       0.1351E-3    -.9817   
    12.25       0.2264E-2    -.9406       0.1358E-3    -.9817   
    12.27       0.2305E-2    -.9401       0.1365E-3    -.9817   
    12.29       0.2346E-2    -.9396       0.1371E-3    -.9816   
    12.31       0.2389E-2    -.9392       0.1378E-3    -.9816   
    12.33       0.2432E-2    -.9387       0.1384E-3    -.9816   
    12.35       0.2477E-2    -.9382       0.1391E-3    -.9816   
    12.37       0.2523E-2    -.9377       0.1398E-3    -.9815   
    12.39       0.2570E-2    -.9372       0.1405E-3    -.9815   
    12.41       0.2619E-2    -.9367       0.1412E-3    -.9815   
    12.43       0.2669E-2    -.9362       0.1418E-3    -.9814   
    12.45       0.2721E-2    -.9356       0.1425E-3    -.9814   
    12.47       0.2774E-2    -.9351       0.1432E-3    -.9814   
    12.49       0.2829E-2    -.9345       0.1439E-3    -.9814   
    12.51       0.2885E-2    -.9339       0.1446E-3    -.9813   
    12.53       0.2943E-2    -.9334       0.1454E-3    -.9813   
    12.55       0.3003E-2    -.9328       0.1461E-3    -.9813   
    12.57       0.3064E-2    -.9322       0.1468E-3    -.9812   
    12.59       0.3128E-2    -.9315       0.1475E-3    -.9812   
    12.61       0.3193E-2    -.9309       0.1483E-3    -.9812   
    12.63       0.3261E-2    -.9303       0.1490E-3    -.9811   
    12.65       0.3331E-2    -.9296       0.1497E-3    -.9811   
    12.67       0.3403E-2    -.9289       0.1505E-3    -.9811   
    12.69       0.3477E-2    -.9283       0.1512E-3    -.9811   
    12.71       0.3554E-2    -.9276       0.1520E-3    -.9810   
    12.73       0.3634E-2    -.9268       0.1528E-3    -.9810   
    12.75       0.3716E-2    -.9261       0.1535E-3    -.9810   
    12.77       0.3801E-2    -.9254       0.1543E-3    -.9809   
    12.79       0.3889E-2    -.9246       0.1551E-3    -.9809   
    12.81       0.3980E-2    -.9238       0.1559E-3    -.9809   
    12.83       0.4074E-2    -.9230       0.1567E-3    -.9808   
    12.85       0.4172E-2    -.9222       0.1575E-3    -.9808   
    12.87       0.4273E-2    -.9214       0.1583E-3    -.9808   
    12.89       0.4378E-2    -.9205       0.1591E-3    -.9807   
    12.91       0.4487E-2    -.9196       0.1599E-3    -.9807   
    12.93       0.4600E-2    -.9187       0.1607E-3    -.9807   
    12.95       0.4718E-2    -.9178       0.1615E-3    -.9807   
    12.97       0.4840E-2    -.9168       0.1624E-3    -.9806   
    12.99       0.4967E-2    -.9159       0.1632E-3    -.9806   
    13.01       0.5098E-2    -.9149       0.1640E-3    -.9806   
    13.03       0.5236E-2    -.9138       0.1649E-3    -.9805   
    13.05       0.5378E-2    -.9128       0.1657E-3    -.9805   
    13.07       0.5527E-2    -.9117       0.1666E-3    -.9805   
    13.09       0.5682E-2    -.9106       0.1675E-3    -.9804   
    13.11       0.5844E-2    -.9095       0.1683E-3    -.9804   
    13.13       0.6013E-2    -.9083       0.1692E-3    -.9804   
    13.15       0.6189E-2    -.9071       0.1701E-3    -.9803   
    13.17       0.6373E-2    -.9058       0.1710E-3    -.9803   
    13.19       0.6565E-2    -.9046       0.1719E-3    -.9803   
    13.21       0.6766E-2    -.9032       0.1728E-3    -.9802   
    13.23       0.6976E-2    -.9019       0.1737E-3    -.9802   
    13.25       0.7197E-2    -.9005       0.1746E-3    -.9801   
    13.27       0.7428E-2    -.8990       0.1756E-3    -.9801   
    13.29       0.7671E-2    -.8975       0.1765E-3    -.9801   
    13.31       0.7925E-2    -.8960       0.1774E-3    -.9800   
    13.33       0.8193E-2    -.8944       0.1784E-3    -.9800   
    13.35       0.8474E-2    -.8928       0.1794E-3    -.9800   
    13.37       0.8770E-2    -.8911       0.1803E-3    -.9799   
    13.39       0.9082E-2    -.8893       0.1813E-3    -.9799   
    13.41       0.9411E-2    -.8875       0.1823E-3    -.9799   
    13.43       0.9758E-2    -.8856       0.1832E-3    -.9798   
    13.45       0.1012E-1    -.8836       0.1842E-3    -.9798   
    13.47       0.1051E-1    -.8816       0.1852E-3    -.9798   
    13.49       0.1092E-1    -.8795       0.1863E-3    -.9797   
    13.51       0.1136E-1    -.8773       0.1873E-3    -.9797   
    13.53       0.1182E-1    -.8750       0.1883E-3    -.9796   
    13.55       0.1231E-1    -.8727       0.1893E-3    -.9796   
    13.57       0.1283E-1    -.8702       0.1904E-3    -.9796   
    13.59       0.1338E-1    -.8677       0.1914E-3    -.9795   
    13.61       0.1398E-1    -.8650       0.1925E-3    -.9795   
    13.63       0.1461E-1    -.8622       0.1935E-3    -.9794   
    13.65       0.1528E-1    -.8593       0.1946E-3    -.9794   
    13.67       0.1601E-1    -.8562       0.1957E-3    -.9794   
    13.69       0.1678E-1    -.8530       0.1968E-3    -.9793   
    13.71       0.1761E-1    -.8497       0.1979E-3    -.9793   
    13.73       0.1851E-1    -.8462       0.1990E-3    -.9793   
    13.75       0.1948E-1    -.8425       0.2001E-3    -.9792   
    13.77       0.2052E-1    -.8387       0.2012E-3    -.9792   
    13.79       0.2165E-1    -.8346       0.2024E-3    -.9791   
    13.81       0.2288E-1    -.8303       0.2035E-3    -.9791   
    13.83       0.2421E-1    -.8258       0.2047E-3    -.9791   
    13.85       0.2566E-1    -.8210       0.2058E-3    -.9790   
    13.87       0.2725E-1    -.8160       0.2070E-3    -.9790   
    13.89       0.2898E-1    -.8106       0.2082E-3    -.9789   
    13.91       0.3089E-1    -.8049       0.2094E-3    -.9789   
    13.93       0.3299E-1    -.7989       0.2106E-3    -.9788   
    13.95       0.3531E-1    -.7925       0.2118E-3    -.9788   
    13.97       0.3788E-1    -.7856       0.2130E-3    -.9788   
    13.99       0.4073E-1    -.7783       0.2142E-3    -.9787   
    14.01       0.4392E-1    -.7705       0.2155E-3    -.9787   
    14.03       0.4749E-1    -.7620       0.2167E-3    -.9786   
    14.05       0.5152E-1    -.7530       0.2180E-3    -.9786   
    14.07       0.5606E-1    -.7432       0.2193E-3    -.9785   
    14.09       0.6123E-1    -.7327       0.2206E-3    -.9785   
    14.11       0.6712E-1    -.7213       0.2219E-3    -.9785   
    14.13       0.7389E-1    -.7090       0.2232E-3    -.9784   
    14.15       0.8172E-1    -.6955       0.2245E-3    -.9784   
    14.17       0.9081E-1    -.6809       0.2258E-3    -.9783   
    14.19       0.1015       -.6649       0.2272E-3    -.9783   
    14.21       0.1140       -.6474       0.2285E-3    -.9782   
    14.23       0.1290       -.6283       0.2299E-3    -.9782   
    14.25       0.1469       -.6074       0.2313E-3    -.9781   
    14.27       0.1686       -.5845       0.2327E-3    -.9781   
    14.29       0.1952       -.5598       0.2341E-3    -.9780   
    14.31       0.2280       -.5332       0.2355E-3    -.9780   
    14.33       0.2689       -.5052       0.2369E-3    -.9779   
    14.35       0.3202       -.4767       0.2383E-3    -.9779   
    14.37       0.3851       -.4499       0.2398E-3    -.9779   
    14.39       0.4672       -.4284       0.2413E-3    -.9778   
    14.41       0.5700       -.4192       0.2427E-3    -.9778   
    14.43       0.6951       -.4333       0.2442E-3    -.9777   
    14.45       0.8379       -.4867       0.2457E-3    -.9777   
    14.47       0.9817       -.5968       0.2473E-3    -.9776   
    14.49        1.094       -.7704       0.2488E-3    -.9776   
    14.51        1.136       -.9884       0.2503E-3    -.9775   
    14.53        1.092       -1.205       0.2519E-3    -.9775   
    14.55       0.9793       -1.376       0.2535E-3    -.9774   
    14.57       0.8373       -1.484       0.2551E-3    -.9774   
    14.59       0.6974       -1.536       0.2567E-3    -.9773   
    14.61       0.5755       -1.551       0.2583E-3    -.9773   
    14.63       0.4750       -1.544       0.2599E-3    -.9772   
    14.65       0.3939       -1.525       0.2616E-3    -.9772   
    14.67       0.3287       -1.501       0.2632E-3    -.9771   
    14.69       0.2764       -1.474       0.2649E-3    -.9770   
    14.71       0.2343       -1.448       0.2666E-3    -.9770   
    14.73       0.2003       -1.422       0.2683E-3    -.9769   
    14.75       0.1728       -1.397       0.2701E-3    -.9769   
    14.77       0.1502       -1.374       0.2718E-3    -.9768   
    14.79       0.1317       -1.353       0.2736E-3    -.9768   
    14.81       0.1162       -1.334       0.2753E-3    -.9767   
    14.83       0.1033       -1.316       0.2771E-3    -.9767   
    14.85       0.9231E-1    -1.300       0.2790E-3    -.9766   
    14.87       0.8298E-1    -1.285       0.2808E-3    -.9766   
    14.89       0.7497E-1    -1.272       0.2826E-3    -.9765   
    14.91       0.6804E-1    -1.259       0.2845E-3    -.9764   
    14.93       0.6202E-1    -1.248       0.2864E-3    -.9764   
    14.95       0.5676E-1    -1.237       0.2883E-3    -.9763   
    14.97       0.5213E-1    -1.227       0.2902E-3    -.9763   
    14.99       0.4804E-1    -1.218       0.2922E-3    -.9762   
    15.02       0.4441E-1    -1.210       0.2941E-3    -.9762   
    15.04       0.4118E-1    -1.202       0.2961E-3    -.9761   
    15.06       0.3828E-1    -1.194       0.2981E-3    -.9760   
    15.08       0.3568E-1    -1.187       0.3001E-3    -.9760   
    15.10       0.3333E-1    -1.181       0.3022E-3    -.9759   
    15.12       0.3121E-1    -1.175       0.3043E-3    -.9759   
    15.14       0.2928E-1    -1.169       0.3063E-3    -.9758   
    15.16       0.2752E-1    -1.164       0.3084E-3    -.9757   
    15.18       0.2592E-1    -1.159       0.3106E-3    -.9757   
    15.20       0.2446E-1    -1.154       0.3127E-3    -.9756   
    15.22       0.2311E-1    -1.149       0.3149E-3    -.9755   
    15.24       0.2188E-1    -1.145       0.3171E-3    -.9755   
    15.26       0.2074E-1    -1.141       0.3193E-3    -.9754   
    15.28       0.1969E-1    -1.137       0.3216E-3    -.9754   
    15.30       0.1871E-1    -1.133       0.3238E-3    -.9753   
    15.32       0.1781E-1    -1.130       0.3261E-3    -.9752   
    15.34       0.1697E-1    -1.126       0.3284E-3    -.9752   
    15.36       0.1620E-1    -1.123       0.3308E-3    -.9751   
    15.38       0.1547E-1    -1.120       0.3331E-3    -.9750   
    15.40       0.1479E-1    -1.117       0.3355E-3    -.9750   
    15.42       0.1416E-1    -1.114       0.3379E-3    -.9749   
    15.44       0.1356E-1    -1.111       0.3404E-3    -.9748   
    15.46       0.1301E-1    -1.109       0.3429E-3    -.9748   
    15.48       0.1249E-1    -1.106       0.3453E-3    -.9747   
    15.50       0.1200E-1    -1.104       0.3479E-3    -.9746   
    15.52       0.1154E-1    -1.102       0.3504E-3    -.9745   
    15.54       0.1110E-1    -1.099       0.3530E-3    -.9745   
    15.56       0.1069E-1    -1.097       0.3556E-3    -.9744   
    15.58       0.1030E-1    -1.095       0.3582E-3    -.9743   
    15.60       0.9939E-2    -1.093       0.3609E-3    -.9743   
    15.62       0.9593E-2    -1.091       0.3636E-3    -.9742   
    15.64       0.9265E-2    -1.089       0.3663E-3    -.9741   
    15.66       0.8955E-2    -1.088       0.3691E-3    -.9740   
    15.68       0.8661E-2    -1.086       0.3719E-3    -.9740   
    15.70       0.8382E-2    -1.084       0.3747E-3    -.9739   
    15.72       0.8116E-2    -1.083       0.3776E-3    -.9738   
    15.74       0.7864E-2    -1.081       0.3805E-3    -.9737   
    15.76       0.7624E-2    -1.080       0.3834E-3    -.9737   
    15.78       0.7396E-2    -1.078       0.3863E-3    -.9736   
    15.80       0.7178E-2    -1.077       0.3893E-3    -.9735   
    15.82       0.6971E-2    -1.075       0.3923E-3    -.9734   
    15.84       0.6773E-2    -1.074       0.3954E-3    -.9734   
    15.86       0.6584E-2    -1.073       0.3985E-3    -.9733   
    15.88       0.6403E-2    -1.071       0.4016E-3    -.9732   
    15.90       0.6230E-2    -1.070       0.4048E-3    -.9731   
    15.92       0.6065E-2    -1.069       0.4080E-3    -.9730   
    15.94       0.5908E-2    -1.068       0.4113E-3    -.9730   
    15.96       0.5757E-2    -1.066       0.4146E-3    -.9729   
    15.98       0.5612E-2    -1.065       0.4179E-3    -.9728   
    16.00       0.5473E-2    -1.064       0.4213E-3    -.9727   
    16.02       0.5341E-2    -1.063       0.4247E-3    -.9726   
    16.04       0.5213E-2    -1.062       0.4281E-3    -.9725   
    16.06       0.5091E-2    -1.061       0.4316E-3    -.9724   
    16.08       0.4974E-2    -1.060       0.4352E-3    -.9724   
    16.10       0.4861E-2    -1.059       0.4388E-3    -.9723   
    16.12       0.4753E-2    -1.058       0.4424E-3    -.9722   
    16.14       0.4650E-2    -1.057       0.4461E-3    -.9721   
    16.16       0.4550E-2    -1.056       0.4498E-3    -.9720   
    16.18       0.4455E-2    -1.055       0.4536E-3    -.9719   
    16.20       0.4363E-2    -1.054       0.4574E-3    -.9718   
    16.22       0.4274E-2    -1.054       0.4612E-3    -.9717   
    16.24       0.4189E-2    -1.053       0.4652E-3    -.9716   
    16.26       0.4108E-2    -1.052       0.4691E-3    -.9715   
    16.28       0.4029E-2    -1.051       0.4732E-3    -.9715   
    16.30       0.3954E-2    -1.050       0.4772E-3    -.9714   
    16.32       0.3881E-2    -1.050       0.4814E-3    -.9713   
    16.34       0.3811E-2    -1.049       0.4855E-3    -.9712   
    16.36       0.3744E-2    -1.048       0.4898E-3    -.9711   
    16.38       0.3680E-2    -1.047       0.4941E-3    -.9710   
    16.40       0.3618E-2    -1.047       0.4984E-3    -.9709   
    16.42       0.3558E-2    -1.046       0.5029E-3    -.9708   
    16.44       0.3501E-2    -1.045       0.5073E-3    -.9707   
    16.46       0.3446E-2    -1.045       0.5119E-3    -.9706   
    16.48       0.3394E-2    -1.044       0.5165E-3    -.9705   
    16.50       0.3343E-2    -1.043       0.5211E-3    -.9704   
    16.52       0.3295E-2    -1.042       0.5259E-3    -.9703   
    16.54       0.3249E-2    -1.042       0.5306E-3    -.9702   
    16.56       0.3204E-2    -1.041       0.5355E-3    -.9700   
    16.58       0.3162E-2    -1.041       0.5404E-3    -.9699   
    16.60       0.3122E-2    -1.040       0.5454E-3    -.9698   
    16.62       0.3083E-2    -1.039       0.5505E-3    -.9697   
    16.64       0.3047E-2    -1.039       0.5557E-3    -.9696   
    16.66       0.3012E-2    -1.038       0.5609E-3    -.9695   
    16.68       0.2979E-2    -1.038       0.5662E-3    -.9694   
    16.70       0.2948E-2    -1.037       0.5715E-3    -.9693   
    16.72       0.2919E-2    -1.036       0.5770E-3    -.9692   
    16.74       0.2892E-2    -1.036       0.5825E-3    -.9690   
    16.76       0.2866E-2    -1.035       0.5881E-3    -.9689   
    16.78       0.2843E-2    -1.035       0.5938E-3    -.9688   
    16.80       0.2822E-2    -1.034       0.5996E-3    -.9687   
    16.82       0.2804E-2    -1.033       0.6055E-3    -.9686   
    16.84       0.2788E-2    -1.033       0.6114E-3    -.9684   
    16.86       0.2774E-2    -1.032       0.6175E-3    -.9683   
    16.88       0.2764E-2    -1.032       0.6236E-3    -.9682   
    16.90       0.2757E-2    -1.031       0.6299E-3    -.9681   
    16.92       0.2755E-2    -1.031       0.6362E-3    -.9679   
    16.94       0.2757E-2    -1.030       0.6427E-3    -.9678   
    16.96       0.2764E-2    -1.030       0.6492E-3    -.9677   
    16.98       0.2777E-2    -1.029       0.6558E-3    -.9676   
    17.00       0.2793E-2    -1.029       0.6626E-3    -.9674   
    17.02       0.2809E-2    -1.028       0.6694E-3    -.9673   
    17.04       0.2818E-2    -1.028       0.6764E-3    -.9672   
    17.06       0.2816E-2    -1.027       0.6835E-3    -.9670   
    17.08       0.2804E-2    -1.027       0.6907E-3    -.9669   
    17.10       0.2785E-2    -1.026       0.6980E-3    -.9667   
    17.12       0.2768E-2    -1.026       0.7054E-3    -.9666   
    17.14       0.2755E-2    -1.025       0.7129E-3    -.9665   
    17.16       0.2748E-2    -1.025       0.7206E-3    -.9663   
    17.18       0.2748E-2    -1.024       0.7284E-3    -.9662   
    17.20       0.2755E-2    -1.024       0.7364E-3    -.9660   
    17.22       0.2768E-2    -1.023       0.7444E-3    -.9659   
    17.24       0.2788E-2    -1.022       0.7527E-3    -.9657   
    17.26       0.2815E-2    -1.022       0.7610E-3    -.9656   
    17.28       0.2849E-2    -1.021       0.7695E-3    -.9654   
    17.30       0.2893E-2    -1.021       0.7782E-3    -.9653   
    17.32       0.2946E-2    -1.020       0.7870E-3    -.9651   
    17.34       0.3011E-2    -1.020       0.7959E-3    -.9650   
    17.36       0.3089E-2    -1.019       0.8050E-3    -.9648   
    17.38       0.3181E-2    -1.019       0.8143E-3    -.9646   
    17.40       0.3285E-2    -1.018       0.8238E-3    -.9645   
    17.42       0.3392E-2    -1.018       0.8334E-3    -.9643   
    17.44       0.3486E-2    -1.017       0.8432E-3    -.9641   
    17.46       0.3551E-2    -1.017       0.8531E-3    -.9640   
    17.48       0.3583E-2    -1.016       0.8633E-3    -.9638   
    17.50       0.3591E-2    -1.015       0.8737E-3    -.9636   
    17.52       0.3595E-2    -1.015       0.8842E-3    -.9634   
    17.54       0.3608E-2    -1.014       0.8949E-3    -.9633   
    17.56       0.3638E-2    -1.014       0.9059E-3    -.9631   
    17.58       0.3686E-2    -1.013       0.9170E-3    -.9629   
    17.60       0.3752E-2    -1.012       0.9284E-3    -.9627   
    17.62       0.3836E-2    -1.012       0.9400E-3    -.9625   
    17.64       0.3936E-2    -1.011       0.9518E-3    -.9623   
    17.66       0.4053E-2    -1.010       0.9639E-3    -.9622   
    17.68       0.4187E-2    -1.009       0.9762E-3    -.9620   
    17.70       0.4339E-2    -1.008       0.9887E-3    -.9618   
    17.72       0.4511E-2    -1.008       0.1002E-2    -.9616   
    17.74       0.4703E-2    -1.007       0.1015E-2    -.9614   
    17.76       0.4918E-2    -1.006       0.1028E-2    -.9612   
    17.78       0.5160E-2    -1.005       0.1041E-2    -.9610   
    17.80       0.5430E-2    -1.004       0.1055E-2    -.9607   
    17.82       0.5733E-2    -1.003       0.1070E-2    -.9605   
    17.84       0.6074E-2    -1.002       0.1084E-2    -.9603   
    17.86       0.6458E-2    -1.000       0.1099E-2    -.9601   
    17.88       0.6893E-2    -.9992       0.1114E-2    -.9599   
    17.90       0.7387E-2    -.9979       0.1129E-2    -.9597   
    17.92       0.7950E-2    -.9965       0.1145E-2    -.9594   
    17.94       0.8595E-2    -.9950       0.1161E-2    -.9592   
    17.96       0.9338E-2    -.9934       0.1178E-2    -.9590   
    17.98       0.1020E-1    -.9917       0.1194E-2    -.9587   
    18.00       0.1120E-1    -.9898       0.1212E-2    -.9585   
    18.02       0.1237E-1    -.9878       0.1229E-2    -.9582   
    18.04       0.1376E-1    -.9856       0.1247E-2    -.9580   
    18.06       0.1541E-1    -.9833       0.1266E-2    -.9577   
    18.08       0.1739E-1    -.9808       0.1285E-2    -.9575   
    18.10       0.1979E-1    -.9780       0.1304E-2    -.9572   
    18.12       0.2272E-1    -.9750       0.1324E-2    -.9570   
    18.14       0.2634E-1    -.9718       0.1344E-2    -.9567   
    18.16       0.3085E-1    -.9685       0.1365E-2    -.9564   
    18.18       0.3651E-1    -.9651       0.1386E-2    -.9562   
    18.20       0.4367E-1    -.9618       0.1407E-2    -.9559   
    18.22       0.5274E-1    -.9591       0.1430E-2    -.9556   
    18.24       0.6411E-1    -.9577       0.1453E-2    -.9553   
    18.26       0.7801E-1    -.9588       0.1476E-2    -.9550   
    18.28       0.9404E-1    -.9641       0.1500E-2    -.9547   
    18.30       0.1105       -.9756       0.1525E-2    -.9544   
    18.32       0.1238       -.9945       0.1550E-2    -.9541   
    18.34       0.1296       -1.019       0.1576E-2    -.9538   
    18.36       0.1255       -1.044       0.1602E-2    -.9535   
    18.38       0.1132       -1.064       0.1630E-2    -.9532   
    18.40       0.9704E-1    -1.077       0.1658E-2    -.9528   
    18.42       0.8074E-1    -1.083       0.1687E-2    -.9525   
    18.44       0.6638E-1    -1.085       0.1716E-2    -.9522   
    18.46       0.5454E-1    -1.084       0.1747E-2    -.9518   
    18.48       0.4507E-1    -1.081       0.1778E-2    -.9515   
    18.50       0.3759E-1    -1.078       0.1810E-2    -.9511   
    18.52       0.3166E-1    -1.074       0.1843E-2    -.9507   
    18.54       0.2695E-1    -1.071       0.1877E-2    -.9504   
    18.56       0.2317E-1    -1.068       0.1912E-2    -.9500   
    18.58       0.2012E-1    -1.065       0.1948E-2    -.9496   
    18.60       0.1762E-1    -1.062       0.1985E-2    -.9492   
    18.62       0.1555E-1    -1.060       0.2024E-2    -.9488   
    18.64       0.1383E-1    -1.057       0.2063E-2    -.9484   
    18.66       0.1239E-1    -1.055       0.2104E-2    -.9480   
    18.68       0.1117E-1    -1.053       0.2146E-2    -.9476   
    18.70       0.1012E-1    -1.051       0.2189E-2    -.9471   
    18.72       0.9224E-2    -1.050       0.2234E-2    -.9467   
    18.74       0.8447E-2    -1.048       0.2280E-2    -.9463   
    18.76       0.7771E-2    -1.047       0.2327E-2    -.9458   
    18.78       0.7178E-2    -1.045       0.2377E-2    -.9453   
    18.80       0.6657E-2    -1.044       0.2427E-2    -.9448   
    18.82       0.6195E-2    -1.043       0.2480E-2    -.9444   
    18.84       0.5785E-2    -1.042       0.2534E-2    -.9439   
    18.86       0.5420E-2    -1.041       0.2591E-2    -.9434   
    18.88       0.5092E-2    -1.040       0.2649E-2    -.9428   
    18.90       0.4797E-2    -1.039       0.2709E-2    -.9423   
    18.92       0.4532E-2    -1.038       0.2772E-2    -.9418   
    18.94       0.4291E-2    -1.037       0.2836E-2    -.9412   
    18.96       0.4073E-2    -1.036       0.2903E-2    -.9406   
    18.98       0.3874E-2    -1.035       0.2973E-2    -.9400   
    19.00       0.3692E-2    -1.035       0.3045E-2    -.9394   
    19.02       0.3526E-2    -1.034       0.3121E-2    -.9388   
    19.04       0.3374E-2    -1.033       0.3199E-2    -.9382   
    19.06       0.3234E-2    -1.033       0.3280E-2    -.9376   
    19.08       0.3105E-2    -1.032       0.3364E-2    -.9369   
    19.10       0.2987E-2    -1.031       0.3452E-2    -.9362   
    19.12       0.2877E-2    -1.031       0.3543E-2    -.9355   
    19.14       0.2775E-2    -1.030       0.3639E-2    -.9348   
    19.16       0.2681E-2    -1.030       0.3738E-2    -.9341   
    19.18       0.2593E-2    -1.029       0.3842E-2    -.9333   
    19.20       0.2512E-2    -1.029       0.3950E-2    -.9326   
    19.22       0.2436E-2    -1.028       0.4063E-2    -.9318   
    19.24       0.2366E-2    -1.028       0.4181E-2    -.9310   
    19.26       0.2300E-2    -1.027       0.4305E-2    -.9301   
    19.28       0.2239E-2    -1.027       0.4434E-2    -.9292   
    19.30       0.2182E-2    -1.026       0.4570E-2    -.9284   
    19.32       0.2129E-2    -1.026       0.4712E-2    -.9274   
    19.34       0.2079E-2    -1.026       0.4861E-2    -.9265   
    19.36       0.2032E-2    -1.025       0.5018E-2    -.9255   
    19.38       0.1989E-2    -1.025       0.5182E-2    -.9245   
    19.40       0.1949E-2    -1.024       0.5356E-2    -.9235   
    19.42       0.1911E-2    -1.024       0.5538E-2    -.9224   
    19.44       0.1876E-2    -1.024       0.5730E-2    -.9213   
    19.46       0.1844E-2    -1.023       0.5933E-2    -.9201   
    19.48       0.1814E-2    -1.023       0.6147E-2    -.9189   
    19.50       0.1786E-2    -1.023       0.6373E-2    -.9177   
    19.52       0.1761E-2    -1.022       0.6612E-2    -.9164   
    19.54       0.1738E-2    -1.022       0.6866E-2    -.9151   
    19.56       0.1717E-2    -1.022       0.7134E-2    -.9137   
    19.58       0.1699E-2    -1.021       0.7420E-2    -.9123   
    19.60       0.1684E-2    -1.021       0.7724E-2    -.9108   
    19.62       0.1672E-2    -1.021       0.8047E-2    -.9093   
    19.64       0.1662E-2    -1.020       0.8391E-2    -.9077   
    19.66       0.1656E-2    -1.020       0.8759E-2    -.9060   
    19.68       0.1653E-2    -1.020       0.9152E-2    -.9043   
    19.70       0.1651E-2    -1.019       0.9573E-2    -.9024   
    19.72       0.1648E-2    -1.019       0.1002E-1    -.9005   
    19.74       0.1640E-2    -1.019       0.1051E-1    -.8985   
    19.76       0.1628E-2    -1.018       0.1103E-1    -.8964   
    19.78       0.1612E-2    -1.018       0.1160E-1    -.8943   
    19.80       0.1595E-2    -1.018       0.1220E-1    -.8920   
    19.82       0.1579E-2    -1.018       0.1286E-1    -.8895   
    19.84       0.1567E-2    -1.017       0.1358E-1    -.8870   
    19.86       0.1558E-2    -1.017       0.1435E-1    -.8843   
    19.88       0.1551E-2    -1.017       0.1520E-1    -.8815   
    19.90       0.1547E-2    -1.016       0.1612E-1    -.8785   
    19.92       0.1546E-2    -1.016       0.1714E-1    -.8753   
    19.94       0.1547E-2    -1.016       0.1825E-1    -.8720   
    19.96       0.1550E-2    -1.015       0.1948E-1    -.8684   
    19.98       0.1556E-2    -1.015       0.2084E-1    -.8646   
    20.00       0.1564E-2    -1.015       0.2234E-1    -.8606   
# 
# 07/24/2018 at 09:14 YAMBO @ NewLaptop [start]
# 07/24/2018 at 09:14                   [end]
#  
# Timing   [Min/Max/Average]: 01s/01s/01s
#
# .-Input file : yambo.in
# | optics                         # [R OPT] Optics
# | bse                            # [R BSE] Bethe Salpeter Equation.
# | bsk                            # [R BSK] Bethe Salpeter Equation kernel
# | bss                            # [R BSS] Bethe Salpeter Equation solver
# | FFTGvecs=  4945        RL      # [FFT] Plane-waves
# | NonPDirs= "XYZ"                # [X/BSS] Non periodic chartesian directions (X,Y,Z,XY...)
# | BSEmod= "retarded"             # [BSE] resonant/retarded/coupling
# | BSKmod= "SEX"                  # [BSE] IP/Hartree/HF/ALDA/SEX/BSfxc
# | BSSmod= "d"                    # [BSS] (h)aydock/(d)iagonalization/(i)nversion/(t)ddft`
# | BSENGexx=  437         RL      # [BSK] Exchange components
# | BSENGBlk=  515         RL      # [BSK] Screened interaction block size
# | #WehCpl                        # [BSK] eh interaction included also in coupling
# | % KfnQP_E
# |  7.600000 | 1.000000 | 1.000000 |        # [EXTQP BSK BSS] E parameters  (c/v) eV|adim|adim
# | %
# | % BEnRange
# |   0.00000 | 20.00000 | eV      # [BSS] Energy range
# | %
# | % BDmRange
# |   0.10000 |  0.10000 | eV      # [BSS] Damping range
# | %
# | BEnSteps= 1000                 # [BSS] Energy steps
# | % BLongDir
# | 0.1000E-4 | 0.000    | 0.000    |        # [BSS] [cc] Electric Field
# | %
# | % BSEBands
# |    1 |  50 |                   # [BSK] Bands range
# | %
