#                                                           
#                                                           
# Y88b    /   e           e    e      888~~\    ,88~-_      
#  Y88b  /   d8b         d8b  d8b     888   |  d888   \     
#   Y88b/   /Y88b       d888bdY88b    888 _/  88888    |    
#    Y8Y   /  Y88b     / Y88Y Y888b   888  \  88888    |    
#     Y   /____Y88b   /   YY   Y888b  888   |  Y888   /     
#    /   /      Y88b /          Y888b 888__/    `88_-~      
#                                                           
#                                                           
#       Version 4.3.0 Revision 15652 Hash 9dc5f79           
#                  MPI+SLK+OpenMP Build                     
#               http://www.yambo-code.org                   
#
# Absorption @ Q(1) [q->0 direction] : 1.0000000  0.0000000  0.0000000
#
#
# - Energies      are Perdew, Burke & Ernzerhof(X)+Perdew, Burke & Ernzerhof(C)
# - Wavefunctions are Perdew, Burke & Ernzerhof(X)+Perdew, Burke & Ernzerhof(C)
#
# - The Green`s function is Retarded -
# - Using the Length Gauge -
# - [r,Vnl] *is* included -
#
#    E/ev[1]       EPS-Im[2]     EPS-Re[3]     EPSo-Im[4]    EPSo-Re[5]
#
   0.20000        44.890        272.07        40.765        269.39   
   0.20160        45.459        272.59        41.297        269.89   
   0.20321        46.020        273.10        41.836        270.39   
   0.20481        46.589        273.57        42.382        270.90   
   0.20641        47.171        274.08        42.935        271.41   
   0.20802        47.762        274.61        43.494        271.92   
   0.20962        48.349        275.13        44.061        272.44   
   0.21122        48.963        275.66        44.634        272.97   
   0.21283        49.561        276.19        45.215        273.50   
   0.21443        50.176        276.71        45.803        274.04   
   0.21603        50.799        277.26        46.399        274.58   
   0.21764        51.437        277.83        47.002        275.12   
   0.21924        52.076        278.36        47.613        275.67   
   0.22084        52.730        278.90        48.232        276.23   
   0.22244        53.390        279.49        48.860        276.79   
   0.22405        54.056        280.05        49.495        277.36   
   0.22565        54.728        280.60        50.139        277.93   
   0.22725        55.412        281.19        50.792        278.50   
   0.22886        56.103        281.77        51.454        279.09   
   0.23046        56.808        282.35        52.124        279.67   
   0.23206        57.517        282.94        52.804        280.26   
   0.23367        58.240        283.54        53.493        280.86   
   0.23527        58.982        284.14        54.192        281.46   
   0.23687        59.719        284.75        54.900        282.07   
   0.23848        60.472        285.33        55.618        282.68   
   0.24008        61.238        285.97        56.346        283.29   
   0.24168        62.012        286.59        57.085        283.91   
   0.24329        62.803        287.20        57.834        284.54   
   0.24489        63.598        287.84        58.594        285.17   
   0.24649        64.410        288.47        59.364        285.80   
   0.24810        65.225        289.10        60.146        286.44   
   0.24970        66.062        289.76        60.939        287.09   
   0.25130        66.895        290.39        61.743        287.74   
   0.25291        67.753        291.04        62.560        288.39   
   0.25451        68.630        291.70        63.388        289.05   
   0.25611        69.506        292.36        64.229        289.71   
   0.25772        70.398        293.02        65.081        290.38   
   0.25932        71.307        293.68        65.947        291.05   
   0.26092        72.225        294.35        66.826        291.72   
   0.26253        73.161        295.03        67.717        292.40   
   0.26413        74.111        295.69        68.623        293.08   
   0.26573        75.066        296.38        69.542        293.77   
   0.26733        76.051        297.07        70.474        294.46   
   0.26894        77.043        297.76        71.421        295.15   
   0.27054        78.057        298.44        72.383        295.85   
   0.27214        79.074        299.16        73.359        296.55   
   0.27375        80.107        299.85        74.350        297.25   
   0.27535        81.170        300.54        75.356        297.96   
   0.27695        82.237        301.25        76.378        298.67   
   0.27856        83.323        301.94        77.416        299.38   
   0.28016        84.430        302.66        78.470        300.09   
   0.28176        85.547        303.36        79.540        300.81   
   0.28337        86.692        304.09        80.627        301.52   
   0.28497        87.855        304.79        81.731        302.24   
   0.28657        89.023        305.50        82.851        302.97   
   0.28818        90.216        306.24        83.990        303.69   
   0.28978        91.427        306.95        85.146        304.41   
   0.29138        92.654        307.64        86.320        305.14   
   0.29299        93.903        308.36        87.513        305.86   
   0.29459        95.174        309.08        88.724        306.59   
   0.29619        96.455        309.81        89.954        307.31   
   0.29780        97.758        310.52        91.203        308.04   
   0.29940        99.104        311.23        92.472        308.76   
   0.30100        100.43        311.92        93.760        309.48   
   0.30261        101.81        312.64        95.069        310.21   
   0.30421        103.21        313.36        96.397        310.92   
   0.30581        104.62        314.03        97.747        311.64   
   0.30741        106.04        314.73        99.116        312.36   
   0.30902        107.50        315.44        100.51        313.07   
   0.31062        108.98        316.14        101.92        313.78   
   0.31222        110.49        316.83        103.35        314.48   
   0.31383        112.02        317.50        104.81        315.18   
   0.31543        113.57        318.18        106.28        315.87   
   0.31703        115.13        318.86        107.78        316.56   
   0.31864        116.71        319.51        109.30        317.24   
      0.32024     118.32697     320.15012     110.84764     317.91946
      0.32184     119.96688     320.81516     112.41333     318.58795
      0.32345     121.64021     321.46667     114.00159     319.24887
      0.32505     123.30876     322.06226     115.61248     319.90131
      0.32665     125.02950     322.70242     117.24590     320.54459
      0.32826     126.76775     323.33301     118.90220     321.17828
      0.32986     128.53860     323.92953     120.58131     321.80173
      0.33146     130.30577     324.51535     122.28304     322.41431
      0.33307     132.10660     325.09476     124.00749     323.01514
      0.33467     133.92520     325.64185     125.75462     323.60370
      0.33627     135.78114     326.16721     127.52414     324.17938
      0.33788     137.65533     326.71106     129.31609     324.74127
      0.33948     139.53389     327.20178     131.13020     325.28879
      0.34108     141.49686     327.70721     132.96638     325.82132
      0.34269     143.44502     328.20016     134.82419     326.33789
      0.34429     145.38594     328.66074     136.70348     326.83813
      0.34589     147.38762     329.10458     138.60385     327.32138
      0.34749     149.40936     329.54196     140.52489     327.78662
      0.34910     151.42419     329.93201     142.46629     328.23337
      0.35070     153.49823     330.34137     144.42757     328.66089
      0.35230     155.57846     330.69809     146.40814     329.06863
      0.35391     157.64963     331.01859     148.40750     329.45609
      0.35551     159.77306     331.35373     150.42505     329.82245
      0.35711     161.91577     331.64154     152.46007     330.16718
      0.35872     164.05289     331.92566     154.51201     330.48978
      0.36032     166.22791     332.16214     156.58009     330.78992
      0.36192     168.43069     332.40445     158.66354     331.06680
      0.36353     170.62753     332.58612     160.76149     331.32028
      0.36513     172.80869     332.76172     162.87314     331.54996
      0.36673     175.05109     332.89410     164.99768     331.75571
      0.36834     177.30499     333.02460     167.13403     331.93701
      0.36994     179.57117     333.12155     169.28149     332.09384
      0.37154     181.84073     333.19724     171.43887     332.22607
      0.37315     184.08704     333.19604     173.60530     332.33362
      0.37475     186.40005     333.23270     175.77977     332.41669
      0.37635     188.70985     333.24023     177.96141     332.47540
      0.37796     190.97227     333.17105     180.14899     332.50980
      0.37956     193.28532     333.11636     182.34171     332.52032
      0.38116     195.60410     333.01260     184.53847     332.50739
      0.38277     197.91661     332.91635     186.73846     332.47122
      0.38437     200.24152     332.75571     188.94061     332.41281
      0.38597     202.58031     332.58276     191.14412     332.33255
      0.38758     204.90268     332.39709     193.34814     332.23111
      0.38918     207.18686     332.16019     195.55182     332.10941
      0.39078     209.50783     331.92490     197.75453     331.96854
      0.39238     211.86668     331.66812     199.95560     331.80923
      0.39399     214.18748     331.37711     202.15439     331.63263
      0.39559     216.48906     331.07666     204.35048     331.43991
      0.39719     218.83629     330.75812     206.54353     331.23233
      0.39880     221.15889     330.44342     208.73308     331.01114
      0.40040     223.45729     330.08194     210.91919     330.77750
      0.40200     225.74400     329.71686     213.10175     330.53308
      0.40361     228.05162     329.31677     215.28075     330.27878
      0.40521     230.40572     328.94980     217.45647     330.01663
      0.40681     232.66733     328.52139     219.62917     329.74765
      0.40842     234.98294     328.10733     221.79944     329.47330
      0.41002     237.27992     327.68201     223.96776     329.19528
      0.41162     239.57750     327.28223     226.13501     328.91458
      0.41323     241.88599     326.84485     228.30202     328.63290
      0.41483     244.20007     326.42032     230.46974     328.35156
      0.41643     246.49590     325.94992     232.63954     328.07175
      0.41804     248.77838     325.52524     234.81248     327.79480
      0.41964     251.07887     325.07336     236.99005     327.52151
      0.42124     253.42575     324.64590     239.17401     327.25351
      0.42285     255.76830     324.19986     241.36586     326.99121
      0.42445     258.06299     323.74078     243.56750     326.73575
      0.42605     260.43179     323.33420     245.78069     326.48773
      0.42766     262.80164     322.88873     248.00757     326.24789
      0.42926     265.16907     322.47110     250.25032     326.01654
      0.43086     267.57684     322.02988     252.51068     325.79422
      0.43246     269.97607     321.60083     254.79147     325.58099
      0.43407     272.42200     321.17831     257.09473     325.37692
      0.43567     274.89832     320.73618     259.42273     325.18192
      0.43727     277.40836     320.32745     261.77802     324.99570
      0.43888     279.89609     319.89838     264.16318     324.81763
      0.44048     282.41974     319.50320     266.58035     324.64737
      0.44208     284.99994     319.07483     269.03244     324.48419
      0.44369     287.63400     318.64166     271.52164     324.32684
      0.44529     290.33127     318.23459     274.05051     324.17444
      0.44689     293.00674     317.82965     276.62152     324.02560
      0.44850     295.77560     317.38943     279.23712     323.87912
      0.45010     298.52390     316.94318     281.89990     323.73297
      0.45170     301.33054     316.50372     284.61185     323.58560
      0.45331     304.23328     316.03183     287.37573     323.43503
      0.45491     307.18698     315.53894     290.19354     323.27914
      0.45651     310.16861     315.06287     293.06757     323.11575
      0.45812     313.20352     314.55576     296.00003     322.94238
      0.45972     316.29227     314.00769     298.99292     322.75626
      0.46132     319.46002     313.46484     302.04803     322.55481
      0.46293     322.68375     312.87714     305.16751     322.33505
      0.46453     325.90530     312.29425     308.35294     322.09399
      0.46613     329.28961     311.58328     311.60608     321.82849
      0.46774     332.69904     310.89664     314.92822     321.53519
      0.46934     336.12894     310.15051     318.32114     321.21030
      0.47094     339.71222     309.42502     321.78586     320.85065
      0.47255     343.24792     308.57443     325.32343     320.45221
      0.47415     346.90829     307.68143     328.93533     320.01144
      0.47575     350.64340     306.73901     332.62195     319.52383
      0.47735     354.45547     305.75253     336.38394     318.98541
      0.47896     358.33450     304.64981     340.22217     318.39215
      0.48056     362.20688     303.55554     344.13675     317.73935
      0.48216     366.19370     302.31229     348.12778     317.02271
      0.48377     370.26352     301.03775     352.19553     316.23743
      0.48537     374.40637     299.61121     356.33954     315.37900
      0.48697     378.52963     298.18829     360.55911     314.44260
      0.48858     382.79190     296.59845     364.85385     313.42322
      0.49018     387.05945     294.99261     369.22287     312.31589
      0.49178     391.49951     293.17770     373.66492     311.11560
      0.49339     395.82306     291.33780     378.17838     309.81720
      0.49499     400.28613     289.33511     382.76196     308.41534
      0.49659     404.83890     287.20099     387.41354     306.90503
      0.49820     409.36435     285.00208     392.13074     305.28082
      0.49980     413.92188     282.64880     396.91132     303.53735
      0.50140     418.58951     280.13925     401.75235     301.66931
      0.50301     423.26859     277.51151     406.65042     299.67126
      0.50461     427.96411     274.74387     411.60245     297.53793
      0.50621     432.63602     271.86618     416.60437     295.26410
      0.50782     437.41513     268.76093     421.65204     292.84436
      0.50942     442.15219     265.55450     426.74088     290.27356
      0.51102     446.90671     262.19604     431.86624     287.54678
      0.51263     451.65106     258.64249     437.02274     284.65869
      0.51423     456.38959     254.97260     442.20450     281.60471
      0.51583     461.14120     251.09715     447.40594     278.38007
      0.51743     465.85696     247.03912     452.62045     274.98016
      0.51904     470.58960     242.76660     457.84106     271.40088
      0.52064     475.30869     238.32884     463.06110     267.63800
      0.52224     479.91479     233.76863     468.27264     263.68787
      0.52385     484.47101     229.01190     473.46780     259.54718
      0.52545     488.99533     224.06207     478.63840     255.21245
      0.52705     493.44794     218.93327     483.77582     250.68118
      0.52866     497.74878     213.67691     488.87109     245.95108
      0.53026     502.04330     208.15234     493.91479     241.01994
      0.53186     506.24512     202.47948     498.89755     235.88686
      0.53347     510.28784     196.65359     503.80936     230.55049
      0.53507     514.29108     190.57782     508.63992     225.01093
      0.53667     518.11285     184.39876     513.37946     219.26797
      0.53828     521.81433     178.01521     518.01697     213.32253
      0.53988     525.37872     171.44794     522.54169     207.17644
      0.54148     528.75183     164.75900     526.94336     200.83124
      0.54309     531.99951     157.87198     531.21082     194.28992
      0.54469     535.07788     150.85579     535.33307     187.55615
      0.54629     537.96655     143.66580     539.29962     180.63367
      0.54790     540.63043     136.40144     543.09973     173.52774
      0.54950     543.14905     128.92760     546.72272     166.24399
      0.55110     545.43073     121.39603     550.15851     158.78853
   0.55271        547.50        113.69        553.40        151.17   
   0.55431        549.36        105.94        556.43        143.39   
   0.55591        551.01        98.034        559.24        135.47   
   0.55752        552.37        90.081        561.83        127.40   
   0.55912        553.55        82.031        564.19        119.21   
   0.56072        554.45        73.964        566.30        110.90   
   0.56232        555.12        65.767        568.16        102.48   
   0.56393        555.55        57.547        569.77        93.958   
   0.56553        555.69        49.363        571.12        85.357   
   0.56713        555.61        41.146        572.20        76.683   
   0.56874        555.27        32.975        573.01        67.950   
   0.57034        554.68        24.677        573.54        59.171   
   0.57194        553.81        16.504        573.80        50.359   
   0.57355        552.75        8.2880        573.77        41.528   
   0.57515        551.37       0.21745        573.47        32.690   
      0.57675     549.81464      -7.82150     572.88788      23.86167
      0.57836     547.95819     -15.83397     572.02539      15.05421
      0.57996     545.88971     -23.73921     570.88507       6.28191
      0.58156     543.61261     -31.56475     569.46930      -2.44160
      0.58317     541.06409     -39.25707     567.78180     -11.10375
      0.58477     538.30640     -46.88334     565.82648     -19.69147
      0.58637     535.33044     -54.36132     563.60846     -28.19201
      0.58798     532.20825     -61.73252     561.13348     -36.59392
      0.58958     528.84277     -69.03664     558.40784     -44.88537
      0.59118     525.29669     -76.03272     555.43860     -53.05507
      0.59279     521.53528     -82.98120     552.23370     -61.09310
      0.59439     517.64423     -89.76006     548.80109     -68.98940
      0.59599     513.59351     -96.42241     545.14954     -76.73465
      0.59760     509.39178    -102.89364     541.28851     -84.32020
      0.59920     505.02783    -109.12550     537.22729     -91.73859
      0.60080     500.51266    -115.25311     532.97577     -98.98254
      0.60240     495.92935    -121.13524     528.54425    -106.04529
      0.60401     491.16235    -126.91608     523.94281    -112.92154
      0.60561     486.29514    -132.45531     519.18201    -119.60618
      0.60721     481.35648    -137.86972     514.27283    -126.09454
      0.60882     476.29901    -143.05370     509.22534    -132.38345
      0.61042     471.16745    -148.09923     504.05038    -138.46992
      0.61202     466.00177    -152.88818     498.75864    -144.35141
      0.61363     460.75653    -157.52538     493.36026    -150.02649
      0.61523     455.46378    -161.95793     487.86566    -155.49416
      0.61683     450.10751    -166.23940     482.28503    -160.75392
      0.61844     444.64792    -170.32738     476.62866    -165.80585
      0.62004     439.27872    -174.24548     470.90555    -170.65073
      0.62164     433.81451    -177.96759     465.12518    -175.28954
      0.62325     428.32578    -181.55334     459.29703    -179.72394
      0.62485     422.84708    -184.96121     453.42950    -183.95602
      0.62645     417.37000    -188.14233     447.53125    -187.98817
      0.62806     411.87625    -191.22290     441.61032    -191.82315
      0.62966     406.39468    -194.11937     435.67474    -195.46405
      0.63126     400.93698    -196.84361     429.73129    -198.91423
      0.63287     395.48532    -199.44824     423.78729    -202.17743
      0.63447     390.03934    -201.85028     417.84958    -205.25746
      0.63607     384.61273    -204.14374     411.92404    -208.15840
      0.63768     379.22491    -206.31612     406.01669    -210.88457
      0.63928     373.85468    -208.33315     400.13342    -213.44020
      0.64088     368.56964    -210.17776     394.27893    -215.83003
      0.64248     363.29825    -211.89845     388.45825    -218.05858
      0.64409     358.07877    -213.51717     382.67578    -220.13036
      0.64569     352.85825    -214.97708     376.93597    -222.05028
      0.64729     347.72037    -216.34673     371.24219    -223.82314
      0.64890     342.60117    -217.63498     365.59821    -225.45348
      0.65050     337.58936    -218.75282     360.00735    -226.94623
      0.65210     332.61548    -219.78394     354.47223    -228.30605
      0.65371     327.69449    -220.71381     348.99554    -229.53777
      0.65531     322.77707    -221.51552     343.58002    -230.64592
      0.65691     317.95767    -222.27745     338.22723    -231.63527
      0.65852     313.20328    -222.91765     332.93930    -232.51035
      0.66012     308.51813    -223.44786     327.71820    -233.27544
      0.66172     303.86032    -223.90553     322.56485    -233.93524
      0.66333     299.32071    -224.29819     317.48074    -234.49373
      0.66493     294.78564    -224.59998     312.46677    -234.95525
      0.66653     290.34741    -224.83168     307.52405    -235.32404
      0.66814     285.94833    -224.96744     302.65305    -235.60406
      0.66974     281.62405    -225.08626     297.85428    -235.79915
      0.67134     277.36343    -225.07468     293.12851    -235.91304
      0.67295     273.17404    -225.04137     288.47556    -235.94957
      0.67455     269.04770    -224.95360     283.89560    -235.91243
      0.67615     264.96323    -224.77562     279.38895    -235.80478
      0.67776     260.94421    -224.55713     274.95505    -235.63019
      0.67936     257.04236    -224.27452     270.59415    -235.39194
      0.68096     253.13490    -223.96214     266.30576    -235.09300
      0.68257     249.33038    -223.60271     262.08936    -234.73656
      0.68417     245.57169    -223.18225     257.94476    -234.32550
      0.68577     241.87474    -222.72653     253.87131    -233.86261
      0.68737     238.25049    -222.22404     249.86841    -233.35078
      0.68898     234.67418    -221.69608     245.93538    -232.79234
      0.69058     231.15625    -221.11310     242.07167    -232.19000
      0.69218     227.72191    -220.50894     238.27649    -231.54614
      0.69379     224.32123    -219.86760     234.54901    -230.86316
      0.69539     220.96663    -219.19379     230.88866    -230.14311
      0.69699     217.70355    -218.49043     227.29422    -229.38832
      0.69860     214.48488    -217.75835     223.76482    -228.60069
      0.70020     211.31041    -217.00531     220.29974    -227.78233
      0.70180     208.21248    -216.22270     216.89812    -226.93492
      0.70341     205.15790    -215.40758     213.55882    -226.06052
      0.70501     202.14587    -214.57750     210.28105    -225.16064
      0.70661     199.19548    -213.74590     207.06387    -224.23701
      0.70822     196.29749    -212.88112     203.90613    -223.29128
      0.70982     193.45119    -211.98851     200.80693    -222.32486
      0.71142     190.64394    -211.09387     197.76529    -221.33920
      0.71303     187.89659    -210.17564     194.78040    -220.33574
      0.71463     185.19838    -209.23814     191.85101    -219.31572
      0.71623     182.52878    -208.29320     188.97626    -218.28040
      0.71784     179.92540    -207.33214     186.15523    -217.23111
      0.71944     177.36775    -206.36308     183.38684    -216.16872
      0.72104     174.85539    -205.38416     180.67017    -215.09448
      0.72265     172.39563    -204.39941     178.00429    -214.00949
      0.72425     169.97322    -203.39288     175.38809    -212.91461
      0.72585     167.59235    -202.38733     172.82085    -211.81088
      0.72745     165.25261    -201.38054     170.30153    -210.69908
      0.72906     162.93430    -200.34653     167.82912    -209.58015
      0.73066     160.69492    -199.31989     165.40283    -208.45488
      0.73226     158.46437    -198.28508     163.02164    -207.32399
      0.73387     156.29509    -197.25377     160.68484    -206.18822
      0.73547     154.15207    -196.20547     158.39134    -205.04826
      0.73707     152.03996    -195.15329     156.14043    -203.90472
      0.73868     149.99141    -194.11340     153.93129    -202.75842
      0.74028     147.95387    -193.05548     151.76289    -201.60973
      0.74188     145.96500    -192.00351     149.63452    -200.45932
      0.74349     144.00505    -190.94737     147.54536    -199.30771
      0.74509     142.07445    -189.88509     145.49461    -198.15526
      0.74669     140.18823    -188.83487     143.48149    -197.00267
      0.74830     138.31865    -187.77222     141.50523    -195.85020
      0.74990     136.50159    -186.71254     139.56505    -194.69853
      0.75150     134.70180    -185.65834     137.66019    -193.54779
      0.75311     132.94756    -184.60278     135.79004    -192.39838
      0.75471     131.22411    -183.54846     133.95374    -191.25089
      0.75631     129.51463    -182.48790     132.15067    -190.10542
      0.75792     127.83924    -181.43602     130.38013    -188.96240
      0.75952     126.20448    -180.38921     128.64143    -187.82214
      0.76112     124.57689    -179.33681     126.93395    -186.68491
      0.76273     122.99487    -178.28990     125.25697    -185.55087
      0.76433     121.43985    -177.24733     123.60995    -184.42043
      0.76593     119.90135    -176.20509     121.99222    -183.29376
      0.76754     118.38850    -175.16917     120.40317    -182.17101
      0.76914     116.91363    -174.13585     118.84225    -181.05254
      0.77074     115.44832    -173.10423     117.30876    -179.93835
      0.77234     114.02482    -172.07693     115.80230    -178.82878
      0.77395     112.60168    -171.04660     114.32212    -177.72388
      0.77555     111.22561    -170.03107     112.86790    -176.62396
      0.77715     109.86295    -169.01871     111.43888    -175.52910
      0.77876     108.51256    -168.00064     110.03468    -174.43929
      0.78036     107.20638    -166.99815     108.65477    -173.35483
      0.78196     105.90857    -165.99719     107.29863    -172.27589
      0.78357     104.63978    -164.99718     105.96573    -171.20229
      0.78517     103.39004    -164.00754     104.65573    -170.13454
      0.78677     102.14790    -163.01042     103.36805    -169.07228
      0.78838     100.93582    -162.03036     102.10218    -168.01591
      0.78998      99.74639    -161.05112     100.85784    -166.96547
      0.79158      98.57887    -160.08299      99.63445    -165.92099
      0.79319      97.42904    -159.11469      98.43163    -164.88245
      0.79479      96.28680    -158.14778      97.24899    -163.84998
      0.79639      95.17340    -157.19431      96.08613    -162.82368
      0.79800      94.06708    -156.23413      94.94259    -161.80354
      0.79960      92.99099    -155.29121      93.81802    -160.78961
      0.80120      91.91432    -154.33946      92.71207    -159.78192
      0.80281      90.87691    -153.41032      91.62428    -158.78050
      0.80441      89.84840    -152.47842      90.55436    -157.78542
      0.80601      88.83022    -151.54929      89.50194    -156.79665
      0.80762      87.83775    -150.63255      88.46664    -155.81421
      0.80922      86.85085    -149.71878      87.44814    -154.83817
      0.81082      85.88400    -148.80435      86.44614    -153.86842
      0.81242      84.93262    -147.90366      85.46023    -152.90509
      0.81403      83.99069    -147.00569      84.49020    -151.94812
      0.81563      83.07442    -146.11630      83.53565    -150.99759
      0.81723      82.16087    -145.22079      82.59634    -150.05347
      0.81884      81.27165    -144.34763      81.67195    -149.11559
      0.82044      80.38848    -143.46909      80.76217    -148.18417
      0.82204      79.51702    -142.59480      79.86677    -147.25905
      0.82365      78.66435    -141.73109      78.98542    -146.34035
      0.82525      77.82029    -140.86990      78.11783    -145.42783
      0.82685      76.99436    -140.01903      77.26378    -144.52182
      0.82846      76.17576    -139.16663      76.42303    -143.62196
      0.83006      75.36930    -138.32741      75.59524    -142.72844
      0.83166      74.58207    -137.48972      74.78028    -141.84119
      0.83327      73.80386    -136.65814      73.97781    -140.96013
      0.83487      73.03693    -135.83423      73.18761    -140.08524
      0.83647      72.27287    -135.01003      72.40954    -139.21661
      0.83808      71.53004    -134.19325      71.64323    -138.35410
      0.83968      70.79265    -133.38211      70.88852    -137.49770
      0.84128      70.06763    -132.58067      70.14523    -136.64740
      0.84289      69.35394    -131.78053      69.41314    -135.80318
      0.84449      68.65359    -130.98785      68.69199    -134.96495
      0.84609      67.96316    -130.20256      67.98161    -134.13274
      0.84770      67.27404    -129.41449      67.28182    -133.30646
      0.84930      66.60363    -128.63861      66.59239    -132.48607
      0.85090      65.93733    -127.86463      65.91313    -131.67171
      0.85250      65.28507    -127.09979      65.24394    -130.86310
      0.85411      64.64534    -126.34143      64.58453    -130.06032
      0.85571      64.00572    -125.58202      63.93474    -129.26332
      0.85731      63.38325    -124.83440      63.29445    -128.47209
      0.85892      62.76000    -124.08313      62.66348    -127.68666
      0.86052      62.14962    -123.34100      62.04155    -126.90673
      0.86212      61.55243    -122.60699      61.42869    -126.13251
      0.86373      60.95750    -121.87297      60.82458    -125.36391
      0.86533      60.37434    -121.14846      60.22911    -124.60084
      0.86693      59.80414    -120.43127      59.64219    -123.84322
      0.86854      59.23048    -119.71087      59.06363    -123.09107
      0.87014      58.67420    -119.00217      58.49329    -122.34441
      0.87174      58.11989    -118.29372      57.93099    -121.60318
      0.87335      57.57797    -117.59572      57.37659    -120.86720
      0.87495      57.03878    -116.89695      56.82996    -120.13653
      0.87655      56.51075    -116.20631      56.29101    -119.41114
      0.87816      55.98799    -115.51807      55.75959    -118.69102
      0.87976      55.47235    -114.83619      55.23550    -117.97598
      0.88136      54.96570    -114.15811      54.71873    -117.26614
      0.88297      54.46301    -113.48685      54.20907    -116.56142
      0.88457      53.96815    -112.81748      53.70645    -115.86181
      0.88617      53.48133    -112.15552      53.21074    -115.16714
      0.88778      52.99813    -111.49457      52.72179    -114.47735
      0.88938      52.52499    -110.84103      52.23954    -113.79271
      0.89098      52.05661    -110.18980      51.76383    -113.11285
      0.89259      51.59374    -109.54549      51.29457    -112.43780
      0.89419      51.13474    -108.90171      50.83168    -111.76762
      0.89579      50.68383    -108.26420      50.37503    -111.10219
      0.89739      50.24299    -107.63555      49.92448    -110.44146
      0.89900      49.80197    -107.00423      49.48003    -109.78555
      0.90060      49.36942    -106.38074      49.04148    -109.13419
      0.90220      48.94179    -105.76136      48.60877    -108.48742
      0.90381      48.52206    -105.14746      48.18185    -107.84528
      0.90541      48.10216    -104.53363      47.76057    -107.20768
      0.90701      47.69324    -103.92629      47.34484    -106.57453
      0.90862      47.28929    -103.32494      46.93462    -105.94586
      0.91022      46.88813    -102.72494      46.52983    -105.32162
      0.91182      46.49236    -102.13026      46.13027    -104.70172
      0.91343      46.10456    -101.54004      45.73598    -104.08616
      0.91503      45.71730    -100.95139      45.34684    -103.47494
      0.91663      45.33803    -100.36918      44.96273    -102.86790
      0.91824      44.96289     -99.79095      44.58364    -102.26517
      0.91984      44.59151     -99.21494      44.20945    -101.66663
      0.92144      44.22762     -98.64536      43.84005    -101.07220
      0.92305      43.86488     -98.07658      43.47546    -100.48188
     0.924649     43.511105    -97.514313     43.115551    -99.895638
     0.926252     43.156853    -96.952629     42.760265    -99.313446
     0.927856     42.807587    -96.395584     42.409519    -98.735313
     0.929459     42.464481    -95.841736     42.063240    -98.161064
     0.931062     42.126019    -95.294556     41.721394    -97.590805
     0.932665     41.789936    -94.748718     41.383904    -97.024445
     0.934269     41.460915    -94.208534     41.050671    -96.461922
     0.935872     41.132526    -93.667809     40.721657    -95.903282
     0.937475     40.812222    -93.135056     40.396828    -95.348412
     0.939078     40.492954    -92.603142     40.076061    -94.797279
     0.940681     40.175953    -92.072624     39.759361    -94.249855
     0.942285     39.867775    -91.550499     39.446644    -93.706230
     0.943888     39.560364    -91.029465     39.137829    -93.166138
     0.945491     39.257915    -90.513657     38.832893    -92.629814
     0.947094     38.958740    -89.999641     38.531765    -92.097031
     0.948697     38.662594    -89.487701     38.234402    -91.567787
     0.950301     38.371433    -88.982292     37.940742    -91.042107
     0.951904     38.081490    -88.475861     37.650742    -90.519920
     0.953507     37.796688    -87.975601     37.364334    -90.001221
     0.955110     37.516197    -87.478996     37.081497    -89.485947
     0.956713     37.237930    -86.983498     36.802151    -88.974121
     0.958317     36.963150    -86.492401     36.526260    -88.465652
     0.959920     36.689922    -86.003113     36.253784    -87.960526
     0.961523     36.424355    -85.519707     35.984665    -87.458786
     0.963126     36.159683    -85.037170     35.718849    -86.960220
     0.964729     35.896011    -84.556946     35.456322    -86.465027
     0.966333     35.639591    -84.082611     35.197018    -85.973068
     0.967936     35.383842    -83.609375     34.940884    -85.484276
     0.969539     35.132778    -83.140144     34.687920    -84.998665
     0.971142     34.881718    -82.672729     34.438034    -84.516273
     0.972745     34.636147    -82.208359     34.191216    -84.036987
     0.974349     34.394501    -81.748505     33.947411    -83.560806
     0.975952     34.153439    -81.289810     33.706596    -83.087654
     0.977555     33.915947    -80.834541     33.468723    -82.617599
     0.979158     33.680939    -80.382439     33.233749    -82.150551
     0.980762     33.449772    -79.932030     33.001640    -81.686501
     0.982365     33.221806    -79.486473     32.772346    -81.225456
     0.983968     32.994671    -79.041801     32.545868    -80.767342
     0.985571     32.771484    -78.599846     32.322128    -80.312141
     0.987174     32.551189    -78.162811     32.101109    -79.859894
     0.988778     32.331425    -77.724533     31.882788    -79.410446
     0.990381     32.116623    -77.292580     31.667107    -78.963913
     0.991984     31.902933    -76.862350     31.454042    -78.520218
     0.993587     31.693001    -76.434708     31.243576    -78.079262
     0.995190     31.485598    -76.009659     31.035625    -77.641106
     0.996794     31.279736    -75.587006     30.830212    -77.205757
     0.998397     31.077578    -75.167931     30.627300    -76.773140
     1.000000     30.876797    -74.750221     30.426809    -76.343201
# 
# 07/28/2018 at 15:53 YAMBO @ narro [start]
# 07/28/2018 at 15:53               [end]
#
# .-Input file : yambo.in
# | optics                         # [R OPT] Optics
# | chi                            # [R CHI] Dyson equation for Chi.
# | BoseTemp=  0.02586     eV      # Bosonic Temperature
# | FFTGvecs=  603         RL      # [FFT] Plane-waves
# | X_Threads= 1                   # [OPENMP/X] Number of threads for response functions
# | DIP_Threads= 1                 # [OPENMP/X] Number of threads for dipoles
# | Chimod= "Hartree"              # [X] IP/Hartree/ALDA/LRC/PF/BSfxc
# | NGsBlkXd= 13           RL      # [Xd] Response block size
# | % QpntsRXd
# |  1 | 1 |                       # [Xd] Transferred momenta
# | %
# | % BndsRnXd
# |   1 |  9 |                     # [Xd] Polarization function bands
# | %
# | GrFnTpXd= "R"                  # [Xd] Green`s function (T)ordered,(R)etarded,(r)senant,(a)ntiresonant [T, R, r, Ta, Ra]
# | % EnRngeXd
# |  0.200000 | 1.000000 | eV      # [Xd] Energy range
# | %
# | % DmRngeXd
# |   0.10000 |  0.10000 | eV      # [Xd] Damping range
# | %
# | ETStpsXd=  500                 # [Xd] Total Energy steps
# | % LongDrXd
# | 0.1000E-4 | 0.000    | 0.000    |        # [Xd] [cc] Electric Field
# | %
# | DipApproach= "Shifted grids"   # [Xd] [G-space v/R-space x/Covariant/Shifted grids]
# | ShiftedPaths= "SHIFTED_grids/shift_1 SHIFTED_grids/shift_2 SHIFTED_grids/shift_3" # [Xd] Shifted grids paths (separated by a space)
