#                                                           
# :::   :::   :::     ::::    ::::  :::::::::   ::::::::    
# :+:   :+: :+: :+:   +:+:+: :+:+:+ :+:    :+: :+:    :+:   
#  +:+ +:+ +:+   +:+  +:+ +:+:+ +:+ +:+    +:+ +:+    +:+   
#   +#++: +#++:++#++: +#+  +:+  +#+ +#++:++#+  +#+    +:+   
#    +#+  +#+     +#+ +#+       +#+ +#+    +#+ +#+    +#+   
#    #+#  #+#     #+# #+#       #+# #+#    #+# #+#    #+#   
#    ###  ###     ### ###       ### #########   ########    
#                                                           
#                                                           
#        Version 4.3.0 Revision 15652 Hash 9dc5f79          
#                  MPI+SLK+OpenMP Build                     
#                http://www.yambo-code.org                  
#
# Absorption @ Q(1) [q->0 direction] : 1.0000000  0.0000000  0.0000000
#
#
# - Energies      are Perdew, Burke & Ernzerhof(X)+Perdew, Burke & Ernzerhof(C)
# - Wavefunctions are Perdew, Burke & Ernzerhof(X)+Perdew, Burke & Ernzerhof(C)
#
# - The Green`s function is Retarded -
# - Using the Length Gauge -
# - [r,Vnl] *is* included -
#
#    E/ev[1]       EPS-Im[2]     EPS-Re[3]     EPSo-Im[4]    EPSo-Re[5]
#
   0.20000        39.944        266.93        40.797        269.64   
   0.20160        40.462        267.41        41.330        270.13   
   0.20321        40.994        267.91        41.870        270.63   
   0.20481        41.528        268.40        42.416        271.14   
   0.20641        42.068        268.90        42.969        271.65   
   0.20802        42.615        269.41        43.529        272.17   
   0.20962        43.174        269.94        44.096        272.69   
   0.21122        43.731        270.43        44.669        273.21   
   0.21283        44.303        270.96        45.251        273.74   
   0.21443        44.879        271.49        45.839        274.28   
   0.21603        45.460        272.00        46.435        274.82   
   0.21764        46.052        272.55        47.039        275.37   
   0.21924        46.650        273.08        47.651        275.92   
   0.22084        47.254        273.61        48.270        276.48   
   0.22244        47.872        274.18        48.898        277.04   
   0.22405        48.484        274.71        49.534        277.61   
   0.22565        49.125        275.30        50.179        278.18   
   0.22725        49.767        275.86        50.832        278.75   
   0.22886        50.410        276.43        51.494        279.34   
   0.23046        51.070        277.00        52.165        279.92   
   0.23206        51.731        277.57        52.846        280.51   
   0.23367        52.410        278.17        53.535        281.11   
   0.23527        53.088        278.74        54.234        281.71   
   0.23687        53.785        279.34        54.943        282.32   
   0.23848        54.488        279.93        55.662        282.93   
   0.24008        55.203        280.55        56.390        283.55   
   0.24168        55.920        281.13        57.129        284.17   
   0.24329        56.654        281.74        57.879        284.79   
   0.24489        57.398        282.36        58.639        285.42   
   0.24649        58.156        283.00        59.410        286.06   
   0.24810        58.923        283.62        60.192        286.70   
   0.24970        59.694        284.24        60.986        287.35   
   0.25130        60.484        284.86        61.791        287.99   
   0.25291        61.283        285.52        62.608        288.65   
   0.25451        62.091        286.15        63.437        289.31   
   0.25611        62.915        286.81        64.278        289.97   
   0.25772        63.754        287.45        65.132        290.64   
   0.25932        64.595        288.10        65.998        291.31   
   0.26092        65.460        288.77        66.877        291.98   
   0.26253        66.342        289.44        67.769        292.66   
   0.26413        67.220        290.09        68.675        293.34   
   0.26573        68.119        290.75        69.595        294.03   
   0.26733        69.030        291.41        70.528        294.72   
   0.26894        69.954        292.10        71.476        295.42   
   0.27054        70.901        292.79        72.438        296.11   
   0.27214        71.852        293.45        73.415        296.81   
   0.27375        72.826        294.16        74.406        297.52   
   0.27535        73.811        294.85        75.414        298.22   
   0.27695        74.818        295.55        76.436        298.93   
   0.27856        75.828        296.21        77.475        299.65   
   0.28016        76.867        296.93        78.529        300.36   
   0.28176        77.913        297.63        79.600        301.08   
   0.28337        78.974        298.31        80.687        301.80   
   0.28497        80.053        299.01        81.792        302.52   
   0.28657        81.152        299.72        82.914        303.24   
   0.28818        82.264        300.41        84.053        303.96   
   0.28978        83.390        301.09        85.210        304.69   
   0.29138        84.546        301.81        86.385        305.41   
   0.29299        85.713        302.53        87.578        306.14   
   0.29459        86.904        303.24        88.790        306.86   
   0.29619        88.103        303.92        90.021        307.59   
   0.29780        89.321        304.63        91.271        308.31   
   0.29940        90.571        305.33        92.541        309.04   
   0.30100        91.829        306.03        93.830        309.76   
   0.30261        93.112        306.73        95.139        310.48   
   0.30421        94.402        307.42        96.469        311.20   
   0.30581        95.729        308.12        97.819        311.92   
   0.30741        97.062        308.80        99.189        312.64   
   0.30902        98.421        309.49        100.58        313.35   
   0.31062        99.818        310.18        101.99        314.06   
   0.31222        101.21        310.85        103.43        314.76   
   0.31383        102.63        311.51        104.88        315.46   
   0.31543        104.08        312.20        106.36        316.16   
      0.31703     105.54286     312.84445     107.86201     316.84778
      0.31864     107.02020     313.49411     109.38405     317.53119
      0.32024     108.53729     314.15088     110.92834     318.20776
      0.32184     110.06983     314.79202     112.49509     318.87726
      0.32345     111.60889     315.40704     114.08441     319.53903
      0.32505     113.18079     316.01691     115.69634     320.19223
      0.32665     114.77409     316.63980     117.33085     320.83649
      0.32826     116.40787     317.24225     118.98822     321.47104
      0.32986     118.04134     317.84042     120.66849     322.09537
      0.33146     119.70873     318.42276     122.37130     322.70868
      0.33307     121.38351     319.00296     124.09691     323.31033
      0.33467     123.09918     319.56024     125.84521     323.89990
      0.33627     124.81696     320.09106     127.61589     324.47638
      0.33788     126.57821     320.63342     129.40903     325.03912
      0.33948     128.32034     321.10965     131.22441     325.58755
      0.34108     130.12439     321.62851     133.06181     326.12085
      0.34269     131.95200     322.13843     134.92085     326.63843
      0.34429     133.75568     322.57349     136.80144     327.13962
      0.34589     135.61203     323.01987     138.70309     327.62369
      0.34749     137.48112     323.44519     140.62544     328.08987
      0.34910     139.35492     323.84659     142.56816     328.53751
      0.35070     141.27010     324.22748     144.53078     328.96600
      0.35230     143.19742     324.59683     146.51277     329.37476
      0.35391     145.14374     324.95810     148.51347     329.76300
      0.35551     147.07855     325.25381     150.53242     330.13028
      0.35711     149.07803     325.58011     152.56889     330.47598
      0.35872     151.05405     325.84036     154.62231     330.79953
      0.36032     153.05573     326.10580     156.69185     331.10043
      0.36192     155.07837     326.34586     158.77681     331.37848
      0.36353     157.09937     326.55020     160.87628     331.63293
      0.36513     159.13110     326.72714     162.98950     331.86356
      0.36673     161.18811     326.88278     165.11563     332.07034
      0.36834     163.24773     327.03317     167.25354     332.25247
      0.36994     165.32899     327.13928     169.40260     332.41040
      0.37154     167.38451     327.20956     171.56166     332.54346
      0.37315     169.46837     327.27850     173.72974     332.65216
      0.37475     171.56244     327.31537     175.90594     332.73611
      0.37635     173.64857     327.33109     178.08931     332.79572
      0.37796     175.74382     327.31424     180.27859     332.83115
      0.37956     177.85785     327.27887     182.47308     332.84265
      0.38116     179.94511     327.20309     184.67172     332.83066
      0.38277     182.06223     327.13660     186.87346     332.79547
      0.38437     184.16521     327.02356     189.07750     332.73804
      0.38597     186.23694     326.87399     191.28288     332.65869
      0.38758     188.34886     326.74911     193.48877     332.55829
      0.38918     190.41805     326.57291     195.69441     332.43759
      0.39078     192.49640     326.35498     197.89908     332.29761
      0.39238     194.57213     326.16940     200.10216     332.13922
      0.39399     196.65480     325.92688     202.30298     331.96362
      0.39559     198.72392     325.70193     204.50111     331.77197
      0.39719     200.76848     325.44092     206.69624     331.56528
      0.39880     202.83394     325.16864     208.88795     331.34494
      0.40040     204.86778     324.89291     211.07619     331.11224
      0.40200     206.91965     324.61243     213.26097     330.86865
      0.40361     208.92889     324.31091     215.44212     330.61551
      0.40521     210.95909     323.99811     217.62013     330.35431
      0.40681     212.99475     323.70984     219.79521     330.08621
      0.40842     214.97871     323.37619     221.96779     329.81293
      0.41002     216.97627     323.07281     224.13843     329.53580
      0.41162     218.97873     322.75156     226.30814     329.25613
      0.41323     220.97726     322.45984     228.47755     328.97546
      0.41483     222.93221     322.12457     230.64781     328.69501
      0.41643     224.90742     321.83545     232.82014     328.41611
      0.41804     226.89099     321.52078     234.99557     328.14008
      0.41964     228.88199     321.23877     237.17586     327.86780
      0.42124     230.85320     320.95749     239.36244     327.60059
      0.42285     232.87215     320.68192     241.55701     327.33932
      0.42445     234.83136     320.41086     243.76144     327.08466
      0.42605     236.80128     320.14072     245.97746     326.83759
      0.42766     238.83142     319.90610     248.20717     326.59863
      0.42926     240.84097     319.68329     250.45277     326.36819
      0.43086     242.84160     319.46783     252.71619     326.14670
      0.43246     244.85394     319.25888     254.99992     325.93439
      0.43407     246.92615     319.06592     257.30624     325.73120
      0.43567     249.02293     318.91470     259.63739     325.53693
      0.43727     251.10980     318.74619     261.99594     325.35144
      0.43888     253.23882     318.59637     264.38422     325.17432
      0.44048     255.38539     318.49011     266.80481     325.00488
      0.44208     257.57269     318.37482     269.26019     324.84238
      0.44369     259.76807     318.26199     271.75284     324.68582
      0.44529     262.04788     318.18542     274.28516     324.53400
      0.44689     264.27872     318.09543     276.85974     324.38611
      0.44850     266.61774     318.04065     279.47900     324.24005
      0.45010     268.97269     317.96469     282.14536     324.09464
      0.45170     271.37411     317.93936     284.86108     323.94785
      0.45331     273.80475     317.88397     287.62878     323.79794
      0.45491     276.34241     317.85190     290.45053     323.64258
      0.45651     278.89783     317.80856     293.32849     323.47980
      0.45812     281.50272     317.76108     296.26495     323.30670
      0.45972     284.16864     317.71353     299.26193     323.12109
      0.46132     286.88599     317.66730     302.32129     322.92004
      0.46293     289.67776     317.62741     305.44504     322.70056
      0.46453     292.55014     317.54379     308.63480     322.45990
      0.46613     295.44073     317.51297     311.89233     322.19455
      0.46774     298.43845     317.41675     315.21902     321.90134
      0.46934     301.43829     317.31259     318.61646     321.57672
      0.47094     304.57928     317.18234     322.08578     321.21722
      0.47255     307.72504     317.02380     325.62808     320.81866
      0.47415     311.00400     316.84625     329.24475     320.37772
      0.47575     314.36041     316.61517     332.93628     319.88983
      0.47735     317.73541     316.38660     336.70331     319.35129
      0.47896     321.26178     316.08679     340.54645     318.75751
      0.48056     324.79678     315.77292     344.46625     318.10434
      0.48216     328.44891     315.37097     348.46249     317.38715
      0.48377     332.14838     314.96127     352.53552     316.60129
      0.48537     335.95609     314.48441     356.68475     315.74228
      0.48697     339.82343     313.95120     360.90982     314.80493
      0.48858     343.77676     313.36142     365.21002     313.78470
      0.49018     347.81393     312.68155     369.58466     312.67624
      0.49178     351.91336     311.94995     374.03232     311.47488
      0.49339     356.09323     311.09573     378.55157     310.17535
      0.49499     360.37704     310.19107     383.14102     308.77213
      0.49659     364.70834     309.21054     387.79831     307.26016
      0.49820     369.12704     308.06729     392.52151     305.63431
      0.49980     373.60617     306.92230     397.30801     303.88898
      0.50140     378.15634     305.60654     402.15512     302.01883
      0.50301     382.78033     304.20776     407.05930     300.01874
      0.50461     387.45844     302.70160     412.01746     297.88303
      0.50621     392.27536     301.06946     417.02554     295.60672
      0.50782     397.04993     299.31088     422.07944     293.18430
      0.50942     401.90720     297.44693     427.17459     290.61090
      0.51102     406.89355     295.42114     432.30624     287.88098
      0.51263     411.84616     293.22467     437.46893     284.98962
      0.51423     416.85086     290.97717     442.65714     281.93225
      0.51583     421.99921     288.51996     447.86496     278.70407
      0.51743     427.10202     285.88739     453.08582     275.30042
      0.51904     432.28107     283.13812     458.31281     271.71716
      0.52064     437.45737     280.17307     463.53906     267.95001
      0.52224     442.62814     277.07538     468.75696     263.99542
      0.52385     447.83911     273.79645     473.95847     259.85010
      0.52545     453.07999     270.32144     479.13513     255.51044
      0.52705     458.29922     266.73505     484.27908     250.97408
      0.52866     463.51202     262.86911     489.38025     246.23877
      0.53026     468.73874     258.86737     494.43005     241.30214
      0.53186     473.92743     254.65219     499.41888     236.16319
      0.53347     479.03647     250.26688     504.33661     230.82104
      0.53507     484.19733     245.63533     509.17310     225.27519
      0.53667     489.29382     240.84190     513.91821     219.52577
      0.53828     494.29880     235.88982     518.56134     213.57367
      0.53988     499.26248     230.57021     523.09155     207.42062
      0.54148     504.05765     225.24886     527.49847     201.06833
      0.54309     508.94089     219.51106     531.77106     194.51959
      0.54469     513.59521     213.74985     535.89825     187.77824
      0.54629     518.17572     207.74141     539.86963     180.84804
      0.54790     522.65631     201.49751     543.67438     173.73415
      0.54950     526.94556     195.12453     547.30176     166.44221
      0.55110     531.14105     188.49611     550.74176     158.97829
   0.55271        535.23        181.66        553.98        151.35   
   0.55431        539.07        174.71        557.02        143.56   
   0.55591        542.78        167.52        559.84        135.63   
   0.55752        546.31        160.15        562.43        127.56   
   0.55912        549.64        152.64        564.79        119.35   
   0.56072        552.76        144.97        566.90        111.03   
   0.56232        555.68        137.09        568.77        102.60   
   0.56393        558.37        129.17        570.38        94.075   
   0.56553        560.83        121.10        571.73        85.464   
   0.56713        563.06        112.82        572.81        76.781   
   0.56874        565.02        104.54        573.62        68.038   
   0.57034        566.75        96.054        574.15        59.249   
   0.57194        568.21        87.552        574.41        50.427   
   0.57355        569.43        78.930        574.39        41.586   
      0.57515     570.35693      70.25214     574.08527      32.73854
      0.57675     571.02655      61.47885     573.50183      23.89982
      0.57836     571.40863      52.73819     572.63873      15.08246
      0.57996     571.50439      44.02354     571.49725       6.30029
      0.58156     571.33679      35.23298     570.08026      -2.43302
      0.58317     570.88934      26.37847     568.39111     -11.10491
      0.58477     570.15356      17.57132     566.43390     -19.70228
      0.58637     569.14594       8.78703     564.21368     -28.21239
   0.58798        567.86       0.15376        561.74       -36.624   
      0.58958     566.29852      -8.52716     559.00787     -44.92452
      0.59118     564.47833     -17.10866     556.03564     -53.10340
      0.59279     562.38416     -25.65363     552.82733     -61.15053
      0.59439     560.03973     -34.07521     549.39124     -69.05566
      0.59599     557.43243     -42.28460     545.73584     -76.80968
      0.59760     554.58649     -50.49931     541.87073     -84.40374
      0.59920     551.50269     -58.55701     537.80524     -91.83056
      0.60080     548.17926     -66.52039     533.54926     -99.08260
      0.60240     544.65045     -74.31138     529.11304    -106.15336
      0.60401     540.89661     -81.91404     524.50659    -113.03732
      0.60561     536.93408     -89.35887     519.74084    -119.72955
      0.60721     532.78827     -96.68118     514.82648    -126.22523
      0.60882     528.45282    -103.79395     509.77356    -132.52130
      0.61042     523.93683    -110.72746     504.59305    -138.61465
      0.61202     519.29224    -117.42066     499.29575    -144.50270
      0.61363     514.48505    -123.92444     493.89151    -150.18436
      0.61523     509.45383    -130.34480     488.39105    -155.65814
      0.61683     504.39191    -136.47600     482.80435    -160.92392
      0.61844     499.17230    -142.42902     477.14194    -165.98154
      0.62004     493.81268    -148.20305     471.41278    -170.83186
      0.62164     488.39081    -153.72664     465.62604    -175.47606
      0.62325     482.85327    -159.03233     459.79160    -179.91537
      0.62485     477.27261    -164.12723     453.91779    -184.15236
      0.62645     471.60559    -169.04965     448.01312    -188.18912
      0.62806     465.84674    -173.78647     442.08591    -192.02850
      0.62966     460.07651    -178.28285     436.14380    -195.67346
      0.63126     454.26483    -182.58659     430.19391    -199.12764
      0.63287     448.35065    -186.70982     424.24359    -202.39461
      0.63447     442.54947    -190.54439     418.29944    -205.47813
      0.63607     436.59378    -194.29039     412.36743    -208.38246
      0.63768     430.64828    -197.83209     406.45377    -211.11179
      0.63928     424.75073    -201.12968     400.56403    -213.67041
      0.64088     418.85742    -204.25310     394.70328    -216.06300
      0.64248     412.95093    -207.26009     388.87616    -218.29411
      0.64409     407.06076    -210.01439     383.08759    -220.36841
      0.64569     401.17679    -212.62521     377.34149    -222.29057
      0.64729     395.33633    -215.05653     371.64163    -224.06540
      0.64890     389.49265    -217.41150     365.99149    -225.69774
      0.65050     383.76205    -219.47012     360.39459    -227.19218
      0.65210     378.00204    -221.49463     354.85336    -228.55382
      0.65371     372.32251    -223.30182     349.37085    -229.78694
      0.65531     366.65714    -225.00398     343.94937    -230.89650
      0.65691     361.09265    -226.52623     338.59085    -231.88708
      0.65852     355.55948    -227.92496     333.29721    -232.76321
      0.66012     350.06851    -229.21977     328.07034    -233.52930
      0.66172     344.62457    -230.36661     322.91141    -234.18987
      0.66333     339.28442    -231.39432     317.82175    -234.74904
      0.66493     333.98596    -232.31372     312.80243    -235.21123
      0.66653     328.74838    -233.11626     307.85431    -235.58055
      0.66814     323.58063    -233.82713     302.97806    -235.86108
      0.66974     318.52856    -234.40764     298.17410    -236.05641
      0.67134     313.47510    -234.92216     293.44308    -236.17062
      0.67295     308.53656    -235.30629     288.78506    -236.20737
      0.67455     303.64136    -235.64342     284.20023    -236.17023
      0.67615     298.84369    -235.86241     279.68863    -236.06264
      0.67776     294.08179    -236.00237     275.25003    -235.88802
      0.67936     289.44638    -236.08249     270.88428    -235.64951
      0.68096     284.84061    -236.05406     266.59131    -235.35040
      0.68257     280.32831    -235.98459     262.37036    -234.99353
      0.68417     275.88474    -235.83640     258.22110    -234.58221
      0.68577     271.49451    -235.61044     254.14331    -234.11896
      0.68737     267.20972    -235.34848     250.13611    -233.60654
      0.68898     262.99118    -234.99963     246.19890    -233.04745
      0.69058     258.80191    -234.62677     242.33099    -232.44475
      0.69218     254.72401    -234.17567     238.53169    -231.80038
      0.69379     250.71660    -233.69455     234.80017    -231.11656
      0.69539     246.76277    -233.15425     231.13576    -230.39587
      0.69699     242.89053    -232.56245     227.53748    -229.64041
      0.69860     239.08600    -231.93895     224.00423    -228.85208
      0.70020     235.33484    -231.26952     220.53535    -228.03279
      0.70180     231.66289    -230.56258     217.13010    -227.18460
      0.70341     228.05600    -229.83220     213.78719    -226.30927
      0.70501     224.51321    -229.06917     210.50583    -225.40860
      0.70661     221.03439    -228.25453     207.28514    -224.48407
      0.70822     217.62987    -227.42133     204.12393    -223.53729
      0.70982     214.28732    -226.55084     201.02139    -222.56995
      0.71142     210.97015    -225.67273     197.97649    -221.58331
      0.71303     207.73738    -224.75389     194.98834    -220.57878
      0.71463     204.57501    -223.81232     192.05577    -219.55769
      0.71623     201.45802    -222.86838     189.17789    -218.52138
      0.71784     198.41063    -221.88852     186.35388    -217.47101
      0.71944     195.40974    -220.88406     183.58246    -216.40756
      0.72104     192.47212    -219.88358     180.86282    -215.33229
      0.72265     189.59154    -218.84688     178.19405    -214.24614
      0.72425     186.75349    -217.80287     175.57507    -213.15025
      0.72585     183.97594    -216.75844     173.00500    -212.04535
      0.72745     181.26085    -215.69284     170.48299    -210.93242
      0.72906     178.56882    -214.61018     168.00787    -209.81227
      0.73066     175.94594    -213.51660     165.57893    -208.68587
      0.73226     173.34450    -212.41380     163.19519    -207.55377
      0.73387     170.83366    -211.31825     160.85587    -206.41679
      0.73547     168.35538    -210.19730     158.55994    -205.27570
      0.73707     165.91211    -209.08063     156.30656    -204.13107
      0.73868     163.53194    -207.95636     154.09502    -202.98352
      0.74028     161.17963    -206.82442     151.92426    -201.83359
      0.74188     158.87973    -205.68716     149.79359    -200.68199
      0.74349     156.61436    -204.54623     147.70218    -199.52908
      0.74509     154.40526    -203.40968     145.64925    -198.37566
      0.74669     152.21831    -202.25235     143.63391    -197.22188
      0.74830     150.07558    -201.10858     141.65555    -196.06822
      0.74990     147.98781    -199.96391     139.71326    -194.91531
      0.75150     145.92012    -198.80415     137.80634    -193.76338
      0.75311     143.90764    -197.66211     135.93416    -192.61276
      0.75471     141.91972    -196.51256     134.09584    -191.46411
      0.75631     139.97029    -195.35825     132.29083    -190.31749
      0.75792     138.06100    -194.21364     130.51837    -189.17323
      0.75952     136.18307    -193.06049     128.77785    -188.03186
      0.76112     134.34384    -191.91696     127.06846    -186.89337
      0.76273     132.52666    -190.76952     125.38968    -185.75821
      0.76433     130.75754    -189.63928     123.74091    -184.62657
      0.76593     129.00752    -188.49312     122.12141    -183.49870
      0.76754     127.28667    -187.35733     120.53062    -182.37480
      0.76914     125.60569    -186.21976     118.96803    -181.25520
      0.77074     123.95319    -185.09084     117.43288    -180.13980
      0.77234     122.33723    -183.96490     115.92480    -179.02910
      0.77395     120.74256    -182.84673     114.44304    -177.92310
      0.77555     119.17219    -181.72865     112.98724    -176.82202
      0.77715     117.62729    -180.60765     111.55668    -175.72595
      0.77876     116.12230    -179.50461     110.15099    -174.63510
      0.78036     114.64095    -178.40024     108.76958    -173.54958
      0.78196     113.17915    -177.30309     107.41194    -172.46947
      0.78357     111.74265    -176.20044     106.07761    -171.39481
      0.78517     110.33640    -175.11737     104.76620    -170.32588
      0.78677     108.94743    -174.03209     103.47712    -169.26256
      0.78838     107.58773    -172.95419     102.20990    -168.20514
      0.78998     106.24791    -171.87924     100.96421    -167.15356
      0.79158     104.93420    -170.80527      99.73953    -166.10796
      0.79319     103.64621    -169.74263      98.53540    -165.06837
      0.79479     102.37308    -168.69070      97.35147    -164.03490
      0.79639     101.12480    -167.63977      96.18735    -163.00755
      0.79800      99.89169    -166.58824      95.04259    -161.98633
      0.79960      98.68781    -165.55692      93.91677    -160.97131
      0.80120      97.50503    -164.52202      92.80967    -159.96262
      0.80281      96.33470    -163.49030      91.72070    -158.96027
      0.80441      95.19391    -162.47459      90.64963    -157.96405
      0.80601      94.06429    -161.46307      89.59608    -156.97429
      0.80762      92.94850    -160.44299      88.55965    -155.99078
      0.80922      91.86093    -159.44656      87.54006    -155.01372
      0.81082      90.78678    -158.44954      86.53697    -154.04305
      0.81242      89.73043    -157.46010      85.55001    -153.07874
      0.81403      88.69331    -156.47520      84.57892    -152.12073
      0.81563      87.67486    -155.50261      83.62335    -151.16922
      0.81723      86.66463    -154.52969      82.68304    -150.22408
      0.81884      85.68507    -153.56967      81.75764    -149.28529
      0.82044      84.70345    -152.60468      80.84688    -148.35283
      0.82204      83.74928    -151.65627      79.95052    -147.42682
      0.82365      82.80588    -150.70949      79.06821    -146.50710
      0.82525      81.87913    -149.76819      78.19968    -145.59373
      0.82685      80.96371    -148.84012      77.34472    -144.68672
      0.82846      80.07233    -147.91743      76.50307    -143.78595
      0.83006      79.18095    -146.98753      75.67439    -142.89151
      0.83166      78.31446    -146.07915      74.85856    -142.00334
      0.83327      77.45848    -145.17134      74.05522    -141.12137
      0.83487      76.61959    -144.27721      73.26415    -140.24557
      0.83647      75.78701    -143.37814      72.48521    -139.37602
      0.83808      74.97142    -142.49203      71.71809    -138.51257
      0.83968      74.16583    -141.60658      70.96260    -137.65530
      0.84128      73.36773    -140.72557      70.21850    -136.80415
      0.84289      72.59190    -139.85878      69.48559    -135.95901
      0.84449      71.82168    -138.99319      68.76367    -135.11996
      0.84609      71.06422    -138.13390      68.05253    -134.28688
      0.84770      70.32126    -137.28294      67.35199    -133.45982
      0.84930      69.58894    -136.44035      66.66181    -132.63858
      0.85090      68.86580    -135.60304      65.98186    -131.82335
      0.85250      68.15274    -134.76506      65.31192    -131.01399
      0.85411      67.45047    -133.93906      64.65178    -130.21042
      0.85571      66.76044    -133.11807      64.00128    -129.41254
      0.85731      66.07729    -132.30028      63.36032    -128.62045
      0.85892      65.40779    -131.48955      62.72863    -127.83418
      0.86052      64.74860    -130.68977      62.10607    -127.05351
      0.86212      64.09505    -129.88597      61.49254    -126.27844
      0.86373      63.45578    -129.09566      60.88778    -125.50903
      0.86533      62.82610    -128.31215      60.29168    -124.74514
      0.86693      62.20041    -127.52669      59.70413    -123.98678
      0.86854      61.58796    -126.75474      59.12491    -123.23391
      0.87014      60.98129    -125.98232      58.55389    -122.48650
      0.87174      60.38316    -125.21729      57.99107    -121.74441
      0.87335      59.79789    -124.46129      57.43607    -121.00770
      0.87495      59.21639    -123.70709      56.88885    -120.27628
      0.87655      58.64627    -122.95958      56.34933    -119.55021
      0.87816      58.08182    -122.21500      55.81731    -118.82929
      0.87976      57.52892    -121.47980      55.29268    -118.11359
      0.88136      56.97766    -120.74541      54.77536    -117.40298
      0.88297      56.43983    -120.02094      54.26513    -116.69748
      0.88457      55.90579    -119.29786      53.76198    -115.99706
      0.88617      55.38187    -118.58154      53.26573    -115.30172
      0.88778      54.86481    -117.86923      52.77625    -114.61126
      0.88938      54.35486    -117.16365      52.29346    -113.92583
      0.89098      53.85129    -116.46236      51.81726    -113.24528
      0.89259      53.35547    -115.76662      51.34749    -112.56960
      0.89419      52.86440    -115.07388      50.88410    -111.89870
      0.89579      52.38409    -114.39162      50.42695    -111.23264
      0.89739      51.90605    -113.70917      49.97591    -110.57128
      0.89900      51.43540    -113.03210      49.53098    -109.91460
      0.90060      50.97063    -112.35918      49.09197    -109.26256
      0.90220      50.51520    -111.69181      48.65881    -108.61517
      0.90381      50.06327    -111.02829      48.23140    -107.97238
      0.90541      49.61801    -110.37294      47.80968    -107.33416
      0.90701      49.18119    -109.72090      47.39351    -106.70029
      0.90862      48.74745    -109.07288      46.98283    -106.07104
      0.91022      48.32188    -108.43074      46.57758    -105.44614
      0.91182      47.89887    -107.79056      46.17759    -104.82561
      0.91343      47.48382    -107.15620      45.78288    -104.20946
      0.91503      47.07240    -106.52738      45.39333    -103.59757
      0.91663      46.66670    -105.89933      45.00880    -102.98992
      0.91824      46.26738    -105.27838      44.62930    -102.38660
      0.91984      45.87275    -104.66149      44.25470    -101.78743
      0.92144      45.48418    -104.04935      43.88490    -101.19234
      0.92305      45.09905    -103.44021      43.51991    -100.60152
      0.92465      44.72078    -102.83694      43.15960    -100.01468
      0.92625      44.34829    -102.23832      42.80393     -99.43192
      0.92786      43.97752    -101.64211      42.45281     -98.85316
      0.92946      43.61068    -101.04816      42.10615     -98.27834
      0.93106      43.25359    -100.46277      41.76393     -97.70752
     0.932665     42.897240    -99.878601     41.426075    -97.140579
     0.934269     42.545662    -99.297638     41.092472    -96.577499
     0.935872     42.200104    -98.722496     40.763115    -96.018280
     0.937475     41.859539    -98.152031     40.437912    -95.462814
     0.939078     41.520653    -97.583786     40.116806    -94.911133
     0.940681     41.188599    -97.020111     39.799778    -94.363159
     0.942285     40.859795    -96.460716     39.486710    -93.818993
     0.943888     40.534828    -95.903114     39.177544    -93.278412
     0.945491     40.214100    -95.350517     38.872272    -92.741470
     0.947094     39.897778    -94.802666     38.570827    -92.208160
     0.948697     39.586258    -94.257210     38.273129    -91.678352
     0.950301     39.278427    -93.718742     37.979164    -91.152176
     0.951904     38.972851    -93.179855     37.688831    -90.629494
     0.953507     38.672016    -92.645020     37.402126    -90.110245
     0.955110     38.375183    -92.114861     37.118950    -89.594444
     0.956713     38.082188    -91.587738     36.839310    -89.082123
     0.958317     37.792377    -91.064247     36.563118    -88.573166
     0.959920     37.507004    -90.544708     36.290344    -88.067520
     0.961523     37.224815    -90.028656     36.020931    -87.565231
     0.963126     36.945969    -89.515884     35.754822    -87.066254
     0.964729     36.669674    -89.003983     35.491997    -86.570549
     0.966333     36.398190    -88.500000     35.232422    -86.078133
     0.967936     36.129410    -87.996643     34.976006    -85.588867
     0.969539     35.866741    -87.498093     34.722744    -85.102737
     0.971142     35.602547    -86.999825     34.472576    -84.619850
     0.972745     35.344162    -86.506516     34.225483    -84.140068
     0.974349     35.089966    -86.019547     33.981426    -83.663399
     0.975952     34.835663    -85.530106     33.740330    -83.189781
     0.977555     34.586540    -85.045929     33.502186    -82.719299
     0.979158     34.342197    -84.567192     33.266968    -82.251762
     0.980762     34.098068    -84.088570     33.034580    -81.787277
     0.982365     33.858040    -83.614532     32.805061    -81.325768
     0.983968     33.621342    -83.144341     32.578323    -80.867249
     0.985571     33.386555    -82.675323     32.354336    -80.411583
     0.987174     33.155952    -82.211838     32.133072    -79.958832
     0.988778     32.927563    -81.749161     31.914497    -79.509010
     0.990381     32.701893    -81.289398     31.698563    -79.062012
     0.991984     32.478695    -80.833984     31.485262    -78.617844
     0.993587     32.258793    -80.380791     31.274553    -78.176498
     0.995190     32.042099    -79.931099     31.066374    -77.737938
     0.996794     31.827267    -79.483673     30.860722    -77.302155
     0.998397     31.615307    -79.038742     30.657578    -76.869095
     1.000000     31.406279    -78.597382     30.456869    -76.438736
# 
# 07/28/2018 at 15:53 YAMBO @ narro [start]
# 07/28/2018 at 15:53               [end]
#
# .-Input file : yambo.in
# | optics                         # [R OPT] Optics
# | chi                            # [R CHI] Dyson equation for Chi.
# | ElecTemp=  0.02586     eV      # Electronic Temperature
# | BoseTemp=  0.02586     eV      # Bosonic Temperature
# | FFTGvecs=  603         RL      # [FFT] Plane-waves
# | X_Threads= 1                   # [OPENMP/X] Number of threads for response functions
# | DIP_Threads= 1                 # [OPENMP/X] Number of threads for dipoles
# | Chimod= "Hartree"              # [X] IP/Hartree/ALDA/LRC/PF/BSfxc
# | NGsBlkXd= 13           RL      # [Xd] Response block size
# | % QpntsRXd
# |  1 | 1 |                       # [Xd] Transferred momenta
# | %
# | % BndsRnXd
# |   1 |  9 |                     # [Xd] Polarization function bands
# | %
# | GrFnTpXd= "R"                  # [Xd] Green`s function (T)ordered,(R)etarded,(r)senant,(a)ntiresonant [T, R, r, Ta, Ra]
# | % EnRngeXd
# |  0.200000 | 1.000000 | eV      # [Xd] Energy range
# | %
# | % DmRngeXd
# |   0.10000 |  0.10000 | eV      # [Xd] Damping range
# | %
# | ETStpsXd=  500                 # [Xd] Total Energy steps
# | % LongDrXd
# | 0.1000E-4 | 0.000    | 0.000    |        # [Xd] [cc] Electric Field
# | %
