#                                                                     
#                                                                     
# Y88b    /   e           e    e      888~~\    ,88~-_                
#  Y88b  /   d8b         d8b  d8b     888   |  d888   \               
#   Y88b/   /Y88b       d888bdY88b    888 _/  88888    |              
#    Y8Y   /  Y88b     / Y88Y Y888b   888  \  88888    |              
#     Y   /____Y88b   /   YY   Y888b  888   |  Y888   /               
#    /   /      Y88b /          Y888b 888__/    `88_-~                
#                                                                     
#                                                                     
# Version 5.2.0 Revision 22427 Hash (prev commit) 49ca835f5           
#           Branch is fixes-alpha-def-issue540                        
#         MPI+OpenMP+SLK+SLEPC+HDF5_MPI_IO Build                      
#               http://www.yambo-code.org                             
#
# Polarizability  ( -<<X>> ) @ Q(1):   1.00000000      0.00000000      0.00000000    [q->0 direction]
#
# Polarizability units: volume
#
# [GEN] GF Energies                               : Perdew, Burke & Ernzerhof(X)+Perdew, Burke & Ernzerhof(C)
# [GEN] Green`s Function                          : Retarded
#
# [GEN] Gauge                                     : Length
# [GEN] [r,Vnl] included                          : yes
#
# DIP band range                                  :  12  18
# DIP band range limits                           :  16  16
# DIP e/h energy range                            :  -1.00000000     -1.00000000    [eV]
# RL vectors in the sum                           :   9999
# [r,Vnl] included                                : yes
# Bands ordered                                   : yes
# Direct v evaluation                             : no
# Approach used                                   : G-space v
# Dipoles computed                                : R V P
# Wavefunctions                                   : Perdew, Burke & Ernzerhof(X)+Perdew, Burke & Ernzerhof(C)
#
#
# [K] Identifier                                  :   7046
# [K] Dimension                                   :  22
# [K] Bands                                       :  12  18
# [K] Exchange res                                : yes
# [K] Correlation res                             : no
# [K] Kernel`s coupling                           : yes
# [K] Exchange cpl                                : yes
# [K] Correlation cpl                             : no
# [K] W interaction is bare                       : no
# [K] ALDA kernel in R-space                      : yes
# [K] RL vectors exchange                         :  2003
# [K] E/h energy range                            :  -1.00000000     -1.00000000    [eV]
# [K] Coupling range                              :   100.000000      100.000000    [o/o]
# [X] Response Kind                               : full
#
#
#    E[1] [eV]          Im(alpha)          Re(alpha)          Im(alpha_o)        Re(alpha_o)
#
       -10.00000          -1.945039          -39.47583          -0.713140          -24.05691
       -9.990000          -1.962560          -39.67042          -0.716698          -24.12832
       -9.980000          -1.980318          -39.86677          -0.720281          -24.20008
       -9.969999          -1.998315          -40.06489          -0.723890          -24.27220
       -9.960000          -2.016559          -40.26480          -0.727526          -24.34468
       -9.950000          -2.035052          -40.46654          -0.731189          -24.41753
       -9.940000          -2.053800          -40.67012          -0.734878          -24.49074
       -9.929999          -2.072807          -40.87558          -0.738594          -24.56433
       -9.920000          -2.092077          -41.08293          -0.742338          -24.63828
       -9.910000          -2.111617          -41.29221          -0.746110          -24.71261
       -9.900000          -2.131430          -41.50343          -0.749909          -24.78731
       -9.889999          -2.151522          -41.71664          -0.753737          -24.86241
       -9.880000          -2.171899          -41.93184          -0.757593          -24.93788
       -9.870000          -2.192565          -42.14909          -0.761479          -25.01373
       -9.860000          -2.213526          -42.36840          -0.765393          -25.08998
       -9.850000          -2.234789          -42.58979          -0.769337          -25.16662
       -9.840000          -2.256358          -42.81330          -0.773310          -25.24364
       -9.830000          -2.278239          -43.03898          -0.777313          -25.32108
       -9.819999          -2.300441          -43.26686          -0.781347          -25.39891
       -9.809999          -2.322966          -43.49693          -0.785411          -25.47715
       -9.799999          -2.345823          -43.72925          -0.789506          -25.55579
       -9.789999          -2.369017          -43.96385          -0.793633          -25.63484
       -9.780000          -2.392556          -44.20077          -0.797791          -25.71431
       -9.770000          -2.416447          -44.44002          -0.801980          -25.79419
       -9.759999          -2.440695          -44.68166          -0.806202          -25.87449
       -9.749999          -2.465310          -44.92572          -0.810457          -25.95521
       -9.740000          -2.490298          -45.17224          -0.814744          -26.03636
       -9.730000          -2.515666          -45.42125          -0.819064          -26.11794
       -9.719999          -2.541423          -45.67279          -0.823418          -26.19995
       -9.709999          -2.567576          -45.92690          -0.827806          -26.28240
       -9.700000          -2.594134          -46.18362          -0.832229          -26.36528
       -9.690000          -2.621106          -46.44298          -0.836685          -26.44862
       -9.679999          -2.648498          -46.70502          -0.841177          -26.53239
       -9.669999          -2.676322          -46.96981          -0.845704          -26.61661
       -9.660000          -2.704585          -47.23737          -0.850267          -26.70130
       -9.650000          -2.733297          -47.50774          -0.854866          -26.78643
       -9.639999          -2.762468          -47.78098          -0.859501          -26.87203
       -9.629999          -2.792108          -48.05712          -0.864173          -26.95808
       -9.620000          -2.822226          -48.33621          -0.868883          -27.04461
       -9.610000          -2.852832          -48.61831          -0.873630          -27.13161
       -9.599999          -2.883939          -48.90344          -0.878415          -27.21909
       -9.590000          -2.915556          -49.19169          -0.883239          -27.30704
       -9.580000          -2.947695          -49.48309          -0.888101          -27.39547
       -9.570000          -2.980366          -49.77768          -0.893003          -27.48440
       -9.559999          -3.013584          -50.07553          -0.897944          -27.57381
       -9.550000          -3.047359          -50.37669          -0.902926          -27.66372
       -9.540000          -3.081704          -50.68120          -0.907948          -27.75413
       -9.530000          -3.116632          -50.98914          -0.913011          -27.84503
       -9.520000          -3.152156          -51.30055          -0.918116          -27.93645
       -9.510000          -3.188291          -51.61552          -0.923263          -28.02838
       -9.500000          -3.225049          -51.93406          -0.928452          -28.12082
       -9.490000          -3.262446          -52.25627          -0.933684          -28.21379
       -9.480000          -3.300497          -52.58220          -0.938959          -28.30727
       -9.470000          -3.339216          -52.91190          -0.944278          -28.40129
       -9.460000          -3.378619          -53.24547          -0.949642          -28.49583
       -9.449999          -3.418727          -53.58299          -0.955051          -28.59092
       -9.440000          -3.459547          -53.92443          -0.960504          -28.68654
       -9.429999          -3.501107          -54.27000          -0.966004          -28.78272
       -9.419999          -3.543417          -54.61967          -0.971549          -28.87944
       -9.409999          -3.586497          -54.97355          -0.977142          -28.97672
       -9.400000          -3.630369          -55.33171          -0.982782          -29.07456
       -9.389999          -3.675048          -55.69422          -0.988470          -29.17296
       -9.379999          -3.720558          -56.06119          -0.994207          -29.27192
       -9.369999          -3.766917          -56.43267          -0.999992          -29.37147
       -9.360000          -3.814147          -56.80876          -1.005827          -29.47159
       -9.349999          -3.862272          -57.18954          -1.011713          -29.57230
       -9.339999          -3.911312          -57.57510          -1.017649          -29.67360
       -9.330000          -3.961292          -57.96554          -1.023636          -29.77549
       -9.320000          -4.012236          -58.36094          -1.029676          -29.87798
       -9.309999          -4.064168          -58.76139          -1.035768          -29.98108
       -9.299999          -4.117115          -59.16700          -1.041913          -30.08478
       -9.290000          -4.171103          -59.57787          -1.048112          -30.18910
       -9.280000          -4.226160          -59.99410          -1.054366          -30.29404
       -9.270000          -4.282314          -60.41578          -1.060674          -30.39961
       -9.259999          -4.339594          -60.84304          -1.067038          -30.50581
       -9.250000          -4.398032          -61.27599          -1.073459          -30.61264
       -9.240000          -4.457657          -61.71472          -1.079936          -30.72011
       -9.230000          -4.518504          -62.15936          -1.086472          -30.82824
       -9.219999          -4.580605          -62.61005          -1.093066          -30.93703
       -9.210000          -4.643994          -63.06688          -1.099719          -31.04646
       -9.200000          -4.708710          -63.52999          -1.106432          -31.15657
       -9.190000          -4.774786          -63.99953          -1.113205          -31.26735
       -9.179999          -4.842265          -64.47560          -1.120040          -31.37880
       -9.170000          -4.911183          -64.95836          -1.126937          -31.49094
       -9.160000          -4.981586          -65.44793          -1.133897          -31.60377
       -9.150000          -5.053512          -65.94450          -1.140920          -31.71730
       -9.140000          -5.127008          -66.44815          -1.148008          -31.83152
       -9.130000          -5.202120          -66.95909          -1.155161          -31.94647
       -9.120000          -5.278894          -67.47746          -1.162380          -32.06212
       -9.110000          -5.357382          -68.00343          -1.169666          -32.17850
       -9.099999          -5.437640          -68.53719          -1.177020          -32.29561
       -9.090000          -5.519701          -69.07880          -1.184441          -32.41344
       -9.079999          -5.603650          -69.62862          -1.191933          -32.53204
       -9.070000          -5.689515          -70.18663          -1.199494          -32.65136
       -9.059999          -5.777385          -70.75321          -1.207127          -32.77147
       -9.049999          -5.867298          -71.32843          -1.214831          -32.89232
       -9.039999          -5.959329          -71.91253          -1.222609          -33.01395
       -9.030000          -6.053543          -72.50571          -1.230461          -33.13635
       -9.020000          -6.150008          -73.10816          -1.238387          -33.25954
       -9.009999          -6.248801          -73.72014          -1.246389          -33.38353
       -8.999999          -6.349993          -74.34186          -1.254468          -33.50831
       -8.990000          -6.453665          -74.97356          -1.262625          -33.63390
       -8.980000          -6.559899          -75.61545          -1.270860          -33.76031
       -8.969999          -6.668777          -76.26781          -1.279175          -33.88754
       -8.959999          -6.780389          -76.93089          -1.287571          -34.01561
       -8.950000          -6.894829          -77.60496          -1.296049          -34.14451
       -8.940000          -7.012193          -78.29028          -1.304610          -34.27427
       -8.929999          -7.132580          -78.98714          -1.313255          -34.40488
       -8.919999          -7.256095          -79.69584          -1.321985          -34.53635
       -8.910000          -7.382848          -80.41667          -1.330802          -34.66870
       -8.900000          -7.512951          -81.14994          -1.339706          -34.80193
       -8.889999          -7.646528          -81.89598          -1.348699          -34.93605
       -8.880000          -7.783697          -82.65513          -1.357781          -35.07107
       -8.870000          -7.924593          -83.42773          -1.366955          -35.20700
       -8.860000          -8.069352          -84.21414          -1.376221          -35.34385
       -8.849999          -8.218113          -85.01474          -1.385581          -35.48162
       -8.840000          -8.371028          -85.82990          -1.395035          -35.62033
       -8.830000          -8.528249          -86.66002          -1.404586          -35.75999
       -8.820000          -8.689946          -87.50553          -1.414234          -35.90060
       -8.809999          -8.856283          -88.36683          -1.423980          -36.04218
       -8.800000          -9.027444          -89.24440          -1.433828          -36.18473
       -8.790000          -9.203615          -90.13865          -1.443776          -36.32827
       -8.780000          -9.384993          -91.05011          -1.453828          -36.47280
       -8.770000          -9.571786          -91.97926          -1.463984          -36.61834
       -8.760000          -9.764210          -92.92661          -1.474246          -36.76490
       -8.750000          -9.962496          -93.89268          -1.484615          -36.91248
       -8.740000          -10.16688          -94.87805          -1.495094          -37.06109
       -8.730000          -10.37764          -95.88339          -1.505684          -37.21077
       -8.720000          -10.59498          -96.90901          -1.516384          -37.36148
       -8.709999          -10.81925          -97.95593          -1.527199          -37.51329
       -8.700000          -11.05067          -99.02441          -1.538128          -37.66616
       -8.690000          -11.28964          -100.1155          -1.549176          -37.82014
       -8.679999          -11.53642          -101.2297          -1.560341          -37.97521
       -8.669999          -11.79137          -102.3677          -1.571627          -38.13141
       -8.659999          -12.05486          -103.5303          -1.583036          -38.28873
       -8.650000          -12.32727          -104.7184          -1.594568          -38.44719
       -8.639999          -12.60901          -105.9328          -1.606226          -38.60681
       -8.629999          -12.90051          -107.1743          -1.618011          -38.76759
       -8.620000          -13.20222          -108.4439          -1.629927          -38.92954
       -8.610000          -13.51463          -109.7425          -1.641973          -39.09270
       -8.599999          -13.83825          -111.0710          -1.654153          -39.25705
       -8.589999          -14.17360          -112.4306          -1.666469          -39.42263
       -8.580000          -14.52128          -113.8224          -1.678922          -39.58943
       -8.570000          -14.88187          -115.2473          -1.691514          -39.75748
       -8.559999          -15.25604          -116.7068          -1.704249          -39.92680
       -8.549999          -15.64448          -118.2019          -1.717127          -40.09738
       -8.540000          -16.04789          -119.7340          -1.730152          -40.26925
       -8.530000          -16.46708          -121.3044          -1.743324          -40.44242
       -8.520000          -16.90286          -122.9147          -1.756648          -40.61691
       -8.509999          -17.35612          -124.5662          -1.770124          -40.79273
       -8.500000          -17.82780          -126.2606          -1.783756          -40.96989
       -8.490000          -18.31891          -127.9995          -1.797546          -41.14843
       -8.480000          -18.83052          -129.7847          -1.811495          -41.32834
       -8.469999          -19.36379          -131.6180          -1.825608          -41.50964
       -8.460000          -19.91994          -133.5014          -1.839886          -41.69236
       -8.450000          -20.50030          -135.4368          -1.854333          -41.87651
       -8.440000          -21.10628          -137.4263          -1.868950          -42.06209
       -8.430000          -21.73940          -139.4724          -1.883740          -42.24914
       -8.420000          -22.40130          -141.5773          -1.898707          -42.43767
       -8.410000          -23.09373          -143.7434          -1.913853          -42.62769
       -8.400000          -23.81858          -145.9736          -1.929181          -42.81923
       -8.390000          -24.57790          -148.2705          -1.944695          -43.01230
       -8.380000          -25.37388          -150.6371          -1.960396          -43.20692
       -8.370000          -26.20892          -153.0766          -1.976289          -43.40310
       -8.360000          -27.08563          -155.5923          -1.992377          -43.60089
       -8.350000          -28.00660          -158.1873          -2.008660          -43.80026
       -8.339999          -28.97515          -160.8660          -2.025147          -44.00129
       -8.329999          -29.99432          -163.6317          -2.041837          -44.20395
       -8.320000          -31.06775          -166.4888          -2.058735          -44.40827
       -8.309999          -32.19931          -169.4417          -2.075844          -44.61428
       -8.299999          -33.39324          -172.4951          -2.093168          -44.82201
       -8.289999          -34.65413          -175.6539          -2.110711          -45.03146
       -8.280000          -35.98703          -178.9234          -2.128476          -45.24267
       -8.270000          -37.39745          -182.3092          -2.146467          -45.45565
       -8.259999          -38.89142          -185.8173          -2.164689          -45.67043
       -8.249999          -40.47560          -189.4540          -2.183144          -45.88704
       -8.240000          -42.15725          -193.2260          -2.201838          -46.10548
       -8.230000          -43.94442          -197.1406          -2.220775          -46.32579
       -8.219999          -45.84596          -201.2054          -2.239958          -46.54799
       -8.209999          -47.87167          -205.4283          -2.259393          -46.77211
       -8.200000          -50.03238          -209.8183          -2.279083          -46.99817
       -8.190000          -52.34010          -214.3844          -2.299034          -47.22620
       -8.179999          -54.80819          -219.1365          -2.319249          -47.45621
       -8.170000          -57.45151          -224.0848          -2.339735          -47.68825
       -8.160000          -60.28666          -229.2404          -2.360495          -47.92233
       -8.150000          -63.33215          -234.6150          -2.381535          -48.15849
       -8.139999          -66.60873          -240.2210          -2.402860          -48.39674
       -8.130000          -70.13975          -246.0714          -2.424475          -48.63712
       -8.120000          -73.95137          -252.1798          -2.446386          -48.87967
       -8.110000          -78.07317          -258.5607          -2.468598          -49.12439
       -8.099999          -82.53849          -265.2289          -2.491118          -49.37134
       -8.090000          -87.38516          -272.1999          -2.513949          -49.62054
       -8.080000          -92.65605          -279.4894          -2.537099          -49.87201
       -8.070000          -98.39999          -287.1135          -2.560574          -50.12579
       -8.059999          -104.6726          -295.0878          -2.584381          -50.38192
       -8.050000          -111.5373          -303.4275          -2.608524          -50.64043
       -8.040000          -119.0670          -312.1466          -2.633012          -50.90134
       -8.029999          -127.3458          -321.2578          -2.657852          -51.16471
       -8.020000          -136.4673          -330.7676          -2.683046          -51.43052
       -8.009999          -146.5448          -340.6836          -2.708609          -51.69890
       -8.000000          -157.7021          -350.9996          -2.734540          -51.96977
       -7.989999          -170.0890          -361.7070          -2.760853          -52.24327
       -7.980000          -183.8701          -372.7769          -2.787550          -52.51937
       -7.969999          -199.2437          -384.1692          -2.814646          -52.79815
       -7.960000          -216.4274          -395.8112          -2.842140          -53.07961
       -7.949999          -235.6809          -407.6037          -2.870050          -53.36385
       -7.939999          -257.2878          -419.3948          -2.898378          -53.65084
       -7.929999          -281.5727          -430.9747          -2.927133          -53.94067
       -7.920000          -308.8918          -442.0511          -2.956326          -54.23336
       -7.909999          -339.6275          -452.2238          -2.985966          -54.52896
       -7.900000          -374.1738          -460.9544          -3.016060          -54.82753
       -7.889999          -412.9083          -467.5284          -3.046621          -55.12907
       -7.880000          -456.1466          -471.0155          -3.077657          -55.43368
       -7.869999          -504.0681          -470.2324          -3.109178          -55.74136
       -7.860000          -556.6088          -463.7207          -3.141196          -56.05220
       -7.849999          -613.3135          -449.7602          -3.173720          -56.36623
       -7.840000          -673.1539          -426.4496          -3.206763          -56.68350
       -7.829999          -734.3395          -391.8909          -3.240335          -57.00406
       -7.820000          -794.1791          -344.5111          -3.274448          -57.32796
       -7.809999          -849.0919          -283.5165          -3.309114          -57.65526
       -7.800000          -894.8776          -209.4000          -3.344347          -57.98600
       -7.789999          -927.3079          -124.3310          -3.380156          -58.32027
       -7.780000          -942.9628          -32.19803          -3.416559          -58.65810
       -7.770000          -940.0598           61.84937          -3.453566          -58.99954
       -7.760000          -918.9368           152.2998          -3.491193          -59.34467
       -7.750000          -881.9575           234.3147          -3.529452          -59.69356
       -7.740000          -832.8876           304.5135          -3.568362          -60.04625
       -7.730000          -776.0286           361.2711          -3.607934          -60.40281
       -7.720000          -715.4367           404.5449          -3.648186          -60.76330
       -7.710000          -654.4323           435.4239          -3.689134          -61.12780
       -7.700000          -595.4191           455.6248          -3.730795          -61.49638
       -7.690000          -539.9332           467.0745          -3.773186          -61.86909
       -7.680000          -488.8047           471.6321          -3.816324          -62.24602
       -7.670000          -442.3494           470.9417          -3.860229          -62.62724
       -7.659999          -400.5390           466.3751          -3.904923          -63.01286
       -7.650000          -363.1515           459.0352          -3.950416          -63.40284
       -7.639999          -329.8337           449.7789          -3.996741          -63.79744
       -7.630000          -300.2099           439.2651          -4.043905          -64.19654
       -7.619999          -273.8777           427.9821          -4.091946          -64.60041
       -7.610000          -250.4703           416.2974          -4.140871          -65.00898
       -7.599999          -229.6338           404.4716          -4.190717          -65.42249
       -7.590000          -211.0625           392.6983          -4.241495          -65.84086
       -7.579999          -194.4733           381.1070          -4.293244          -66.26434
       -7.569999          -179.6261           369.7918          -4.345979          -66.69292
       -7.559999          -166.3065           358.8120          -4.399731          -67.12675
       -7.549999          -154.3286           348.2050          -4.454529          -67.56588
       -7.539999          -143.5313           337.9918          -4.510400          -68.01047
       -7.529999          -133.7744           328.1809          -4.567376          -68.46058
       -7.520000          -124.9365           318.7727          -4.625487          -68.91635
       -7.509999          -116.9121           309.7613          -4.684768          -69.37785
       -7.500000          -109.6093           301.1366          -4.745250          -69.84525
       -7.489999          -102.9483           292.8861          -4.806971          -70.31863
       -7.480000          -96.85934           284.9952          -4.869966          -70.79810
       -7.470000          -91.28158           277.4485          -4.934276          -71.28381
       -7.460000          -86.16158           270.2301          -4.999939          -71.77589
       -7.450000          -81.45260           263.3240          -5.066999          -72.27444
       -7.440000          -77.11341           256.7146          -5.135499          -72.77962
       -7.430000          -73.10770           250.3865          -5.205487          -73.29156
       -7.420000          -69.40343           244.3249          -5.277009          -73.81041
       -7.410000          -65.97222           238.5155          -5.350118          -74.33630
       -7.400000          -62.78888           232.9449          -5.424868          -74.86941
       -7.390000          -59.83102           227.6001          -5.501314          -75.40986
       -7.380000          -57.07874           222.4690          -5.579517          -75.95782
       -7.370000          -54.51423           217.5401          -5.659540          -76.51348
       -7.360000          -52.12161           212.8023          -5.741450          -77.07697
       -7.350000          -49.88666           208.2455          -5.825318          -77.64852
       -7.340000          -47.79663           203.8601          -5.911220          -78.22826
       -7.330000          -45.84010           199.6368          -5.999235          -78.81640
       -7.320000          -44.00679           195.5672          -6.089452          -79.41315
       -7.310000          -42.28745           191.6432          -6.181962          -80.01864
       -7.300000          -40.67382           187.8573          -6.276865          -80.63314
       -7.289999          -39.15829           184.2021          -6.374278          -81.25689
       -7.280000          -37.73456           180.6718          -6.474290          -81.88995
       -7.269999          -36.39613           177.2590          -6.577062          -82.53271
       -7.260000          -35.13813           173.9589          -6.682697          -83.18526
       -7.249999          -33.95533           170.7651          -6.791381          -83.84798
       -7.240000          -32.84392           167.6734          -6.903241          -84.52089
       -7.229999          -31.79986           164.6782          -7.018495          -85.20445
       -7.220000          -30.82023           161.7760          -7.137307          -85.89867
       -7.210000          -29.90199           158.9619          -7.259932          -86.60400
       -7.199999          -29.04308           156.2332          -7.386585          -87.32047
       -7.190000          -28.24151           153.5867          -7.517545          -88.04836
       -7.179999          -27.49582           151.0196          -7.653103          -88.78783
       -7.170000          -26.80486           148.5302          -7.793583          -89.53903
       -7.159999          -26.16776           146.1173          -7.939330          -90.30209
       -7.150000          -25.58383           143.7805          -8.090711          -91.07702
       -7.139999          -25.05232           141.5206          -8.248104          -91.86379
       -7.130000          -24.57219           139.3395          -8.411875          -92.66223
       -7.119999          -24.14165           137.2404          -8.582347          -93.47211
       -7.110000          -23.75761           135.2275          -8.759756          -94.29298
       -7.099999          -23.41489           133.3065          -8.944170          -95.12426
       -7.090000          -23.10550           131.4831          -9.135406          -95.96526
       -7.079999          -22.81787           129.7623          -9.332919          -96.81513
       -7.070000          -22.53675           128.1463          -9.535697          -97.67322
       -7.059999          -22.24402           126.6329          -9.742210          -98.53896
       -7.050000          -21.92072           125.2133          -9.950432          -99.41245
       -7.039999          -21.55038           123.8713          -10.15804          -100.2944
       -7.030000          -21.12255           122.5853          -10.36271          -101.1867
       -7.020000          -20.63527           121.3307          -10.56261          -102.0921
       -7.010000          -20.09531           120.0850          -10.75676          -103.0140
       -7.000000          -19.51607           118.8312          -10.94535          -103.9563
       -6.990000          -18.91413           117.5590          -11.12976          -104.9225
       -6.980000          -18.30587           116.2654          -11.31229          -105.9155
       -6.970000          -17.70514           114.9522          -11.49576          -106.9375
       -6.960000          -17.12224           113.6246          -11.68304          -107.9893
       -6.950000          -16.56395           112.2890          -11.87671          -109.0713
       -6.940000          -16.03404           110.9521          -12.07887          -110.1832
       -6.930000          -15.53403           109.6196          -12.29107          -111.3246
       -6.919999          -15.06383           108.2965          -12.51445          -112.4951
       -6.910000          -14.62251           106.9871          -12.74967          -113.6942
       -6.899999          -14.20833           105.6938          -12.99734          -114.9220
       -6.890000          -13.81951           104.4193          -13.25773          -116.1783
       -6.879999          -13.45397           103.1647          -13.53122          -117.4636
       -6.870000          -13.10990           101.9313          -13.81798          -118.7782
       -6.859999          -12.78537           100.7191          -14.11840          -120.1229
       -6.850000          -12.47879           99.52872          -14.43271          -121.4982
       -6.839999          -12.18855           98.35977          -14.76139          -122.9054
       -6.829999          -11.91336           97.21229          -15.10482          -124.3450
       -6.819999          -11.65198           96.08579          -15.46352          -125.8184
       -6.809999          -11.40330           94.97985          -15.83809          -127.3267
       -6.799999          -11.16637           93.89398          -16.22917          -128.8711
       -6.789999          -10.94032           92.82761          -16.63751          -130.4530
       -6.779999          -10.72439           91.78024          -17.06390          -132.0739
       -6.770000          -10.51789           90.75122          -17.50925          -133.7352
       -6.760000          -10.32021           89.74006          -17.97454          -135.4385
       -6.750000          -10.13080           88.74614          -18.46082          -137.1855
       -6.740000          -9.949165           87.76891          -18.96929          -138.9781
       -6.730000          -9.774864           86.80785          -19.50119          -140.8180
       -6.720000          -9.607494           85.86239          -20.05793          -142.7074
       -6.710000          -9.446692           84.93201          -20.64100          -144.6482
       -6.700000          -9.292125           84.01621          -21.25204          -146.6427
       -6.690000          -9.143488           83.11451          -21.89282          -148.6933
       -6.680000          -9.000510           82.22643          -22.56529          -150.8023
       -6.670000          -8.862940           81.35149          -23.27155          -152.9724
       -6.660000          -8.730543           80.48923          -24.01390          -155.2064
       -6.650000          -8.603110           79.63924          -24.79484          -157.5072
       -6.640000          -8.480443           78.80106          -25.61710          -159.8779
       -6.630000          -8.362365           77.97433          -26.48368          -162.3218
       -6.620000          -8.248708           77.15861          -27.39784          -164.8423
       -6.610000          -8.139318           76.35352          -28.36317          -167.4432
       -6.600000          -8.034059           75.55869          -29.38361          -170.1283
       -6.590000          -7.932790           74.77371          -30.46353          -172.9020
       -6.579999          -7.835404           73.99829          -31.60761          -175.7683
       -6.570000          -7.741786           73.23206          -32.82116          -178.7321
       -6.559999          -7.651829           72.47465          -34.10999          -181.7984
       -6.550000          -7.565441           71.72575          -35.48052          -184.9724
       -6.539999          -7.482536           70.98502          -36.93992          -188.2597
       -6.530000          -7.403036           70.25216          -38.49611          -191.6662
       -6.520000          -7.326869           69.52685          -40.15792          -195.1980
       -6.510000          -7.253966           68.80876          -41.93524          -198.8620
       -6.500000          -7.184270           68.09762          -43.83909          -202.6651
       -6.490000          -7.117727           67.39311          -45.88185          -206.6145
       -6.480000          -7.054289           66.69495          -48.07740          -210.7179
       -6.470000          -6.993917           66.00286          -50.44141          -214.9836
       -6.460000          -6.936571           65.31654          -52.99152          -219.4197
       -6.450000          -6.882226           64.63570          -55.74773          -224.0348
       -6.440000          -6.830852           63.96007          -58.73269          -228.8379
       -6.429999          -6.782429           63.28936          -61.97225          -233.8378
       -6.420000          -6.736950           62.62333          -65.49549          -239.0429
       -6.409999          -6.694400           61.96168          -69.33597          -244.4617
       -6.400000          -6.654781           61.30415          -73.53196          -250.1017
       -6.389999          -6.618093           60.65046          -78.12733          -255.9694
       -6.380000          -6.584344           60.00033          -83.17239          -262.0694
       -6.369999          -6.553552           59.35350          -88.72495          -268.4035
       -6.360000          -6.525736           58.70967          -94.85150          -274.9698
       -6.349999          -6.500924           58.06861          -101.6284          -281.7607
       -6.340000          -6.479149           57.43000          -109.1436          -288.7610
       -6.329999          -6.460455           56.79358          -117.4977          -295.9451
       -6.320000          -6.444889           56.15905          -126.8057          -303.2731
       -6.310000          -6.432508           55.52615          -137.1977          -310.6853
       -6.300000          -6.423378           54.89456          -148.8204          -318.0963
       -6.290000          -6.417572           54.26401          -161.8354          -325.3856
       -6.280000          -6.415174           53.63419          -176.4176          -332.3871
       -6.270000          -6.416280           53.00478          -192.7487          -338.8753
       -6.260000          -6.420994           52.37548          -211.0064          -344.5491
       -6.250000          -6.429435           51.74597          -231.3456          -349.0139
       -6.239999          -6.441732           51.11591          -253.8652          -351.7646
       -6.230000          -6.458032           50.48499          -278.5666          -352.1748
       -6.219999          -6.478498           49.85285          -305.2882          -349.4991
       -6.210000          -6.503305           49.21912          -333.6269          -342.9033
       -6.199999          -6.532652           48.58345          -362.8525          -331.5397
       -6.190000          -6.566760           47.94545          -391.8411          -314.6801
       -6.180000          -6.605872           47.30472          -419.0667          -291.9112
       -6.170000          -6.650254           46.66086          -442.7026          -263.3618
       -6.160000          -6.700208           46.01346          -460.8640          -229.8897
       -6.150000          -6.756064           45.36207          -471.9711          -193.1311
       -6.140000          -6.818190           44.70622          -475.1299          -155.3290
       -6.130000          -6.886993           44.04548          -470.3792          -118.9555
       -6.120000          -6.962932           43.37933          -458.6903          -86.24709
       -6.110000          -7.046514           42.70728          -441.7179          -58.82791
       -6.100000          -7.138310           42.02879          -421.4206          -37.54177
       -6.090000          -7.238956           41.34333          -399.7002          -22.50155
       -6.080000          -7.349169           40.65033          -378.1618          -13.27713
       -6.070000          -7.469752           39.94924          -358.0168          -9.120407
       -6.059999          -7.601617           39.23944          -340.0919          -9.157715
       -6.050000          -7.745779           38.52037          -324.9018          -12.51958
       -6.039999          -7.903403           37.79145          -312.7318          -18.41090
       -6.030000          -8.075803           37.05209          -303.7203          -26.13551
       -6.020000          -8.264476           36.30172          -297.9228          -35.09192
       -6.010000          -8.471120           35.53984          -295.3558          -44.75276
       -6.000000          -8.697674           34.76602          -296.0252          -54.63626
       -5.990000          -8.946349           33.97993          -299.9386          -64.27425
       -5.980000          -9.219666           33.18139          -307.1058          -73.17926
       -5.970000          -9.520494           32.37045          -317.5242          -80.81226
       -5.960000          -9.852095           31.54746          -331.1496          -86.55388
       -5.950000          -10.21815           30.71325          -347.8498          -89.68363
       -5.940000          -10.62281           29.86921          -367.3383          -89.37589
       -5.930000          -11.07064           29.01750          -389.0905          -84.72552
       -5.920000          -11.56663           28.16140          -412.2531          -74.82098
       -5.910000          -12.11606           27.30556          -435.5718          -58.87996
       -5.900000          -12.72422           26.45641          -457.3788          -36.44946
       -5.890000          -13.39604           25.62262          -475.6949          -7.641575
       -5.880000          -14.13537           24.81554          -488.4778           26.67134
       -5.869999          -14.94384           24.04962          -493.9970           64.79689
       -5.860000          -15.81953           23.34227          -491.2344           104.4046
       -5.849999          -16.75491           22.71347          -480.1431           142.9126
       -5.840000          -17.73469           22.18405          -461.6517           177.9736
       -5.829999          -18.73395           21.77271          -437.4082           207.8723
       -5.820000          -19.71739           21.49139          -409.3828           231.7052
       -5.809999          -20.64118           21.33944          -379.4875           249.3320
       -5.800000          -21.45828           21.29836          -349.3217           261.1810
       -5.789999          -22.12720           21.32939          -320.0650           268.0109
       -5.780000          -22.62201           21.37644          -292.4850           270.7072
       -5.770000          -22.93997           21.37465          -267.0069           270.1421
       -5.760000          -23.10322           21.26214          -243.8026           267.0954
       -5.750000          -23.15390           20.99068          -222.8736           262.2230
       -5.740000          -23.14480           20.53144          -204.1168           256.0534
       -5.730000          -23.12983           19.87499          -187.3726           248.9997
       -5.720000          -23.15693           19.02706          -172.4563           241.3772
       -5.710000          -23.26482           18.00283          -159.1789           233.4221
       -5.699999          -23.48282           16.82158          -147.3582           225.3078
       -5.690000          -23.83241           15.50310          -136.8268           217.1610
       -5.679999          -24.32965           14.06526          -127.4318           209.0707
       -5.670000          -24.98744           12.52331          -119.0378           201.0989
       -5.659999          -25.81754           10.88976          -111.5252           193.2872
       -5.650000          -26.83211           9.174892          -104.7896           185.6620
       -5.639999          -28.04490           7.387370          -98.73985           178.2387
       -5.630000          -29.47220           5.535172          -93.29681           171.0247
       -5.619999          -31.13355           3.626528          -88.39173           164.0213
       -5.610000          -33.05242           1.671003          -83.96494           157.2262
       -5.600000          -35.25669          -0.319240          -79.96461           150.6337
       -5.590000          -37.77919          -2.327970          -76.34576           144.2362
       -5.580000          -40.65794          -4.332967          -73.06924           138.0250
       -5.570000          -43.93638          -6.303700          -70.10095           131.9905
       -5.560000          -47.66299          -8.198389          -67.41122           126.1225
       -5.550000          -51.89036          -9.960236          -64.97411           120.4106
       -5.540000          -56.67312          -11.51298          -62.76702           114.8446
       -5.530000          -62.06401          -12.75554          -60.77017           109.4142
       -5.520000          -68.10733          -13.55628          -58.96627           104.1092
       -5.509999          -74.82894          -13.74765          -57.34017           98.91953
       -5.500000          -82.21990          -13.12280          -55.87880           93.83612
       -5.489999          -90.21717          -11.43732          -54.57061           88.84932
       -5.480000          -98.67676          -8.420177          -53.40559           83.95010
       -5.470000          -107.3467          -3.799447          -52.37508           79.12964
       -5.460000          -115.8468           2.652454          -51.47160           74.37939
       -5.450000          -123.6693           11.05461          -50.68879           69.69097
       -5.440000          -130.2152           21.34477          -50.02123           65.05629
       -5.430000          -134.8777           33.22251          -49.46444           60.46741
       -5.420000          -137.1605           46.14055          -49.01477           55.91654
       -5.410000          -136.7976           59.36743          -48.66934           51.39600
       -5.400000          -133.8248           72.11414          -48.42602           46.89819
       -5.390000          -128.5697           83.68247          -48.28341           42.41573
       -5.380000          -121.5650           93.57948          -48.24079           37.94106
       -5.370000          -113.4247           101.5629          -48.29814           33.46679
       -5.360000          -104.7316           107.6187          -48.45609           28.98545
       -5.350000          -95.96523           111.8976          -48.71600           24.48951
       -5.340000          -87.47429           114.6425          -49.07990           19.97144
       -5.329999          -79.48238           116.1287          -49.55063           15.42332
       -5.320000          -72.11216           116.6225          -50.13168           10.83774
       -5.309999          -65.41077           116.3605          -50.82745           6.206447
       -5.300000          -59.37598           115.5403          -51.64324           1.521308
       -5.289999          -53.97552           114.3208          -52.58526          -3.226096
       -5.280000          -49.16091           112.8259          -53.66080          -8.044426
       -5.270000          -44.87694           111.1505          -54.87829          -12.94266
       -5.260000          -41.06738           109.3655          -56.24749          -17.93000
       -5.250000          -37.67834           107.5236          -57.77955          -23.01605
       -5.240000          -34.66005           105.6629          -59.48727          -28.21068
       -5.230000          -31.96763           103.8110          -61.38528          -33.52415
       -5.220000          -29.56119           101.9869          -63.49028          -38.96703
       -5.210000          -27.40558           100.2041          -65.82134          -44.55018
       -5.200000          -25.47013           98.47109          -68.40020          -50.28478
       -5.190000          -23.72810           96.79340          -71.25175          -56.18216
       -5.180000          -22.15626           95.17398          -74.40442          -62.25380
       -5.170000          -20.73444           93.61412          -77.89075          -68.51105
       -5.160000          -19.44514           92.11383          -81.74803          -74.96504
       -5.150000          -18.27312           90.67222          -86.01929          -81.62649
       -5.139999          -17.20524           89.28794          -90.75336          -88.50424
       -5.130000          -16.22994           87.95911          -96.00700          -95.60635
       -5.119999          -15.33717           86.68362          -101.8454          -102.9379
       -5.110000          -14.51816           85.45922          -108.3439          -110.5006
       -5.099999          -13.76520           84.28364          -115.5890          -118.2907
       -5.090000          -13.07155           83.15454          -123.6810          -126.2973
       -5.079999          -12.43126           82.06967          -132.7349          -134.4992
       -5.070000          -11.83910           81.02676          -142.8834          -142.8617
       -5.059999          -11.29042           80.02373          -154.2783          -151.3309
       -5.050000          -10.78113           79.05847          -167.0925          -159.8277
       -5.039999          -10.30759           78.12906          -181.5212          -168.2384
       -5.030000          -9.866556           77.23361          -197.7814          -176.4040
       -5.020000          -9.455140           76.37035          -216.1096          -184.1049
       -5.010000          -9.070757           75.53762          -236.7548          -191.0432
       -5.000000          -8.711098           74.73386          -259.9656          -196.8204
       -4.990000          -8.374086           73.95755          -285.9665          -200.9126
       -4.980000          -8.057859           73.20731          -314.9203          -202.6452
       -4.969999          -7.760729           72.48180          -346.8715          -201.1727
       -4.960000          -7.481199           71.77982          -381.6595          -195.4752
       -4.949999          -7.217890           71.10020          -418.8195          -184.3852
       -4.940000          -6.969561           70.44185          -457.4552          -166.6718
       -4.929999          -6.735088           69.80371          -496.1311          -141.2015
       -4.920000          -6.513444           69.18485          -532.8239          -107.1909
       -4.909999          -6.303702           68.58432          -565.0085          -64.52409
       -4.900000          -6.105012           68.00131          -589.9369          -14.05416
       -4.890000          -5.916600           67.43497          -605.1097           42.24594
       -4.880000          -5.737755           66.88456          -608.8345           101.4180
       -4.870000          -5.567831           66.34937          -600.6637           159.9734
       -4.860000          -5.406232           65.82872          -581.5196           214.5429
       -4.850000          -5.252412           65.32198          -553.4421           262.4813
       -4.840000          -5.105868           64.82853          -519.0813           302.2144
       -4.830000          -4.966137           64.34783          -481.1512           333.2609
       -4.820000          -4.832794           63.87933          -442.0195           356.0117
       -4.810000          -4.705444           63.42253          -403.5022           371.4084
       -4.800000          -4.583723           62.97696          -366.8331           380.6433
       -4.790000          -4.467294           62.54214          -332.7418           384.9392
       -4.779999          -4.355843           62.11766          -301.5699           385.4175
       -4.770000          -4.249088           61.70311          -273.3954           383.0377
       -4.760000          -4.146757           61.29812          -248.1230           378.5833
       -4.750000          -4.048599           60.90231          -225.5622           372.6730
       -4.740000          -3.954383           60.51534          -205.4760           365.7838
       -4.730000          -3.863893           60.13686          -187.6135           358.2760
       -4.720000          -3.776927           59.76660          -171.7284           350.4179
       -4.710000          -3.693298           59.40422          -157.5904           342.4061
       -4.700000          -3.612830           59.04947          -144.9896           334.3825
       -4.690000          -3.535359           58.70206          -133.7384           326.4479
       -4.680000          -3.460731           58.36173          -123.6711           318.6723
       -4.670000          -3.388803           58.02826          -114.6424           311.1024
       -4.660000          -3.319440           57.70140          -106.5257           303.7685
       -4.650000          -3.252516           57.38092          -99.21088           296.6882
       -4.640000          -3.187912           57.06664          -92.60233           289.8705
       -4.630000          -3.125517           56.75832          -86.61699           283.3177
       -4.620000          -3.065227           56.45579          -81.18284           277.0275
       -4.610000          -3.006943           56.15886          -76.23722           270.9946
       -4.599999          -2.950568           55.86734          -71.72547           265.2112
       -4.590000          -2.896023           55.58108          -67.60043           259.6691
       -4.579999          -2.843221           55.29992          -63.82042           254.3582
       -4.570000          -2.792084           55.02370          -60.34911           249.2683
       -4.559999          -2.742539           54.75226          -57.15467           244.3892
       -4.550000          -2.694519           54.48548          -54.20910           239.7108
       -4.539999          -2.647954           54.22319          -51.48773           235.2228
       -4.530000          -2.602785           53.96530          -48.96881           230.9157
       -4.520000          -2.558954           53.71165          -46.63305           226.7802
       -4.510000          -2.516404           53.46215          -44.46336           222.8073
       -4.500000          -2.475081           53.21665          -42.44458           218.9885
       -4.490000          -2.434938           52.97507          -40.56317           215.3158
       -4.480000          -2.395927           52.73729          -38.80704           211.7815
       -4.470000          -2.358001           52.50320          -37.16541           208.3785
       -4.460000          -2.321119           52.27271          -35.62857           205.0999
       -4.450000          -2.285240           52.04572          -34.18784           201.9394
       -4.440000          -2.250326           51.82215          -32.83538           198.8909
       -4.430000          -2.216339           51.60189          -31.56416           195.9488
       -4.420000          -2.183244           51.38488          -30.36773           193.1077
       -4.409999          -2.151010           51.17102          -29.24043           190.3627
       -4.400000          -2.119603           50.96024          -28.17698           187.7090
       -4.389999          -2.088995           50.75246          -27.17264           185.1423
       -4.380000          -2.059155           50.54760          -26.22307           182.6583
       -4.369999          -2.030056           50.34560          -25.32436           180.2532
       -4.360000          -2.001672           50.14639          -24.47291           177.9231
       -4.349999          -1.973979           49.94989          -23.66544           175.6648
       -4.340000          -1.946951           49.75606          -22.89894           173.4749
       -4.329999          -1.920567           49.56482          -22.17067           171.3503
       -4.320000          -1.894804           49.37611          -21.47810           169.2881
       -4.310000          -1.869642           49.18989          -20.81890           167.2855
       -4.300000          -1.845060           49.00608          -20.19096           165.3400
       -4.290000          -1.821039           48.82464          -19.59228           163.4492
       -4.280000          -1.797561           48.64551          -19.02107           161.6107
       -4.270000          -1.774608           48.46865          -18.47564           159.8224
       -4.260000          -1.752164           48.29399          -17.95443           158.0821
       -4.250000          -1.730212           48.12151          -17.45602           156.3879
       -4.239999          -1.708736           47.95115          -16.97906           154.7380
       -4.230000          -1.687723           47.78285          -16.52235           153.1306
       -4.219999          -1.667158           47.61659          -16.08471           151.5640
       -4.210000          -1.647026           47.45232          -15.66509           150.0368
       -4.199999          -1.627315           47.29001          -15.26249           148.5473
       -4.190000          -1.608012           47.12959          -14.87598           147.0941
       -4.180000          -1.589105           46.97105          -14.50470           145.6759
       -4.170000          -1.570583           46.81434          -14.14785           144.2914
       -4.160000          -1.552433           46.65943          -13.80467           142.9394
       -4.150000          -1.534646           46.50628          -13.47446           141.6187
       -4.140000          -1.517210           46.35485          -13.15656           140.3282
       -4.130000          -1.500117           46.20512          -12.85035           139.0668
       -4.120000          -1.483355           46.05705          -12.55525           137.8336
       -4.110000          -1.466916           45.91061          -12.27073           136.6275
       -4.100000          -1.450791           45.76577          -11.99625           135.4476
       -4.090000          -1.434971           45.62249          -11.73136           134.2931
       -4.080000          -1.419449           45.48075          -11.47560           133.1632
       -4.070000          -1.404214           45.34052          -11.22853           132.0569
       -4.060000          -1.389262           45.20179          -10.98977           130.9736
       -4.050000          -1.374582           45.06450          -10.75893           129.9125
       -4.039999          -1.360169           44.92864          -10.53566           128.8730
       -4.030000          -1.346016           44.79420          -10.31964           127.8543
       -4.020000          -1.332116           44.66113          -10.11052           126.8558
       -4.010000          -1.318461           44.52942          -9.908025           125.8768
       -4.000000          -1.305047           44.39904          -9.711864           124.9169
       -3.990000          -1.291867           44.26998          -9.521767           123.9754
       -3.980000          -1.278915           44.14219          -9.337480           123.0517
       -3.970000          -1.266185           44.01568          -9.158763           122.1454
       -3.960000          -1.253672           43.89041          -8.985391           121.2560
       -3.950000          -1.241371           43.76635          -8.817142           120.3829
       -3.940000          -1.229277           43.64351          -8.653813           119.5257
       -3.930000          -1.217384           43.52185          -8.495210           118.6839
       -3.920000          -1.205687           43.40135          -8.341148           117.8572
       -3.910000          -1.194183           43.28199          -8.191445           117.0450
       -3.900000          -1.182866           43.16376          -8.045940           116.2471
       -3.890000          -1.171732           43.04663          -7.904471           115.4630
       -3.880000          -1.160778           42.93061          -7.766886           114.6923
       -3.869999          -1.149998           42.81564          -7.633034           113.9347
       -3.859999          -1.139389           42.70174          -7.502789           113.1898
       -3.849999          -1.128948           42.58888          -7.376014           112.4574
       -3.839999          -1.118669           42.47704          -7.252581           111.7371
       -3.830000          -1.108551           42.36622          -7.132376           111.0286
       -3.820000          -1.098589           42.25637          -7.015279           110.3315
       -3.810000          -1.088779           42.14751          -6.901184           109.6456
       -3.800000          -1.079119           42.03962          -6.789983           108.9707
       -3.790000          -1.069605           41.93267          -6.681580           108.3064
       -3.780000          -1.060235           41.82666          -6.575879           107.6525
       -3.770000          -1.051005           41.72155          -6.472786           107.0087
       -3.760000          -1.041911           41.61737          -6.372216           106.3748
       -3.750000          -1.032953           41.51407          -6.274085           105.7506
       -3.740000          -1.024126           41.41165          -6.178312           105.1358
       -3.730000          -1.015428           41.31010          -6.084821           104.5302
       -3.720000          -1.006856           41.20941          -5.993539           103.9337
       -3.710000          -0.998408           41.10955          -5.904393           103.3458
       -3.700000          -0.990081           41.01054          -5.817317           102.7666
       -3.690000          -0.981873           40.91233          -5.732243           102.1958
       -3.680000          -0.973782           40.81493          -5.649113           101.6331
       -3.670000          -0.965805           40.71833          -5.567866           101.0785
       -3.660000          -0.957941           40.62252          -5.488443           100.5318
       -3.650000          -0.950186           40.52748          -5.410789           99.99269
       -3.640000          -0.942539           40.43320          -5.334851           99.46110
       -3.630000          -0.934999           40.33968          -5.260578           98.93685
       -3.620000          -0.927562           40.24689          -5.187920           98.41979
       -3.610000          -0.920227           40.15485          -5.116830           97.90975
       -3.600000          -0.912992           40.06352          -5.047262           97.40662
       -3.590000          -0.905856           39.97290          -4.979173           96.91019
       -3.580000          -0.898816           39.88300          -4.912521           96.42038
       -3.570000          -0.891871           39.79377          -4.847264           95.93702
       -3.560000          -0.885019           39.70524          -4.783362           95.45998
       -3.550000          -0.878259           39.61738          -4.720780           94.98916
       -3.540000          -0.871589           39.53018          -4.659480           94.52440
       -3.530000          -0.865007           39.44365          -4.599427           94.06559
       -3.520000          -0.858512           39.35777          -4.540586           93.61261
       -3.510000          -0.852102           39.27252          -4.482925           93.16536
       -3.500000          -0.845777           39.18790          -4.426411           92.72368
       -3.490000          -0.839534           39.10392          -4.371017           92.28751
       -3.480000          -0.833372           39.02053          -4.316711           91.85676
       -3.470000          -0.827291           38.93776          -4.263466           91.43126
       -3.460000          -0.821288           38.85561          -4.211253           91.01095
       -3.450000          -0.815362           38.77402          -4.160046           90.59573
       -3.440000          -0.809513           38.69304          -4.109820           90.18549
       -3.430000          -0.803739           38.61263          -4.060549           89.78013
       -3.420000          -0.798039           38.53278          -4.012210           89.37959
       -3.410000          -0.792411           38.45350          -3.964779           88.98375
       -3.400000          -0.786856           38.37478          -3.918234           88.59256
       -3.390000          -0.781370           38.29660          -3.872553           88.20587
       -3.380000          -0.775955           38.21897          -3.827715           87.82365
       -3.370000          -0.770608           38.14187          -3.783701           87.44582
       -3.360000          -0.765328           38.06529          -3.740489           87.07228
       -3.350000          -0.760116           37.98924          -3.698061           86.70295
       -3.340000          -0.754968           37.91371          -3.656399           86.33778
       -3.330000          -0.749886           37.83869          -3.615485           85.97667
       -3.319999          -0.744867           37.76416          -3.575299           85.61954
       -3.309999          -0.739912           37.69013          -3.535828           85.26634
       -3.299999          -0.735019           37.61659          -3.497054           84.91701
       -3.289999          -0.730187           37.54353          -3.458962           84.57148
       -3.279999          -0.725416           37.47095          -3.421535           84.22967
       -3.270000          -0.720705           37.39885          -3.384762           83.89152
       -3.260000          -0.716053           37.32721          -3.348624           83.55696
       -3.250000          -0.711459           37.25602          -3.313109           83.22594
       -3.240000          -0.706923           37.18530          -3.278203           82.89839
       -3.230000          -0.702444           37.11502          -3.243895           82.57426
       -3.220000          -0.698021           37.04519          -3.210169           82.25350
       -3.210000          -0.693654           36.97579          -3.177014           81.93604
       -3.200000          -0.689342           36.90682          -3.144419           81.62183
       -3.189999          -0.685085           36.83828          -3.112370           81.31080
       -3.179999          -0.680881           36.77016          -3.080859           81.00292
       -3.169999          -0.676730           36.70246          -3.049873           80.69813
       -3.159999          -0.672633           36.63517          -3.019401           80.39638
       -3.149999          -0.668587           36.56828          -2.989433           80.09760
       -3.139999          -0.664593           36.50179          -2.959960           79.80178
       -3.129999          -0.660650           36.43570          -2.930971           79.50884
       -3.120000          -0.656758           36.37000          -2.902458           79.21875
       -3.110000          -0.652916           36.30468          -2.874410           78.93146
       -3.100000          -0.649124           36.23975          -2.846818           78.64690
       -3.090000          -0.645382           36.17519          -2.819675           78.36507
       -3.080000          -0.641688           36.11100          -2.792972           78.08591
       -3.070000          -0.638042           36.04717          -2.766699           77.80936
       -3.060000          -0.634445           35.98371          -2.740851           77.53538
       -3.050000          -0.630896           35.92060          -2.715418           77.26395
       -3.040000          -0.627393           35.85785          -2.690394           76.99501
       -3.030000          -0.623938           35.79544          -2.665770           76.72855
       -3.020000          -0.620530           35.73337          -2.641541           76.46449
       -3.010000          -0.617168           35.67164          -2.617697           76.20280
       -3.000000          -0.613852           35.61024          -2.594235           75.94347
       -2.990000          -0.610582           35.54918          -2.571147           75.68645
       -2.980000          -0.607358           35.48843          -2.548425           75.43169
       -2.970000          -0.604179           35.42800          -2.526066           75.17917
       -2.960000          -0.601045           35.36790          -2.504061           74.92886
       -2.950000          -0.597955           35.30809          -2.482406           74.68069
       -2.940000          -0.594911           35.24860          -2.461095           74.43466
       -2.930000          -0.591911           35.18941          -2.440123           74.19072
       -2.920000          -0.588955           35.13052          -2.419483           73.94885
       -2.910000          -0.586043           35.07191          -2.399173           73.70902
       -2.900000          -0.583176           35.01360          -2.379184           73.47117
       -2.890000          -0.580352           34.95557          -2.359514           73.23530
       -2.880000          -0.577572           34.89782          -2.340158           73.00136
       -2.870000          -0.574836           34.84035          -2.321111           72.76933
       -2.859999          -0.572143           34.78314          -2.302367           72.53915
       -2.849999          -0.569494           34.72620          -2.283926           72.31083
       -2.839999          -0.566888           34.66953          -2.265780           72.08434
       -2.829999          -0.564325           34.61312          -2.247926           71.85963
       -2.819999          -0.561806           34.55695          -2.230361           71.63667
       -2.809999          -0.559331           34.50104          -2.213081           71.41544
       -2.799999          -0.556899           34.44538          -2.196082           71.19592
       -2.789999          -0.554510           34.38996          -2.179360           70.97808
       -2.779999          -0.552165           34.33477          -2.162912           70.76187
       -2.770000          -0.549864           34.27981          -2.146735           70.54729
       -2.760000          -0.547606           34.22508          -2.130826           70.33430
       -2.750000          -0.545392           34.17058          -2.115182           70.12289
       -2.740000          -0.543222           34.11630          -2.099799           69.91301
       -2.730000          -0.541096           34.06223          -2.084676           69.70465
       -2.720000          -0.539014           34.00838          -2.069809           69.49779
       -2.710000          -0.536976           33.95472          -2.055196           69.29238
       -2.700000          -0.534984           33.90128          -2.040833           69.08842
       -2.690000          -0.533036           33.84803          -2.026720           68.88586
       -2.680000          -0.531132           33.79497          -2.012854           68.68472
       -2.670000          -0.529275           33.74210          -1.999232           68.48492
       -2.660000          -0.527463           33.68942          -1.985852           68.28648
       -2.650000          -0.525697           33.63692          -1.972713           68.08936
       -2.640000          -0.523977           33.58459          -1.959813           67.89353
       -2.630000          -0.522303           33.53243          -1.947150           67.69897
       -2.620000          -0.520677           33.48045          -1.934721           67.50568
       -2.610000          -0.519098           33.42861          -1.922527           67.31358
       -2.600000          -0.517567           33.37694          -1.910566           67.12271
       -2.590000          -0.516084           33.32542          -1.898835           66.93301
       -2.580000          -0.514650           33.27405          -1.887334           66.74447
       -2.570000          -0.513265           33.22282          -1.876062           66.55707
       -2.560000          -0.511930           33.17173          -1.865017           66.37078
       -2.550000          -0.510645           33.12077          -1.854200           66.18558
       -2.540000          -0.509412           33.06994          -1.843608           66.00144
       -2.530000          -0.508229           33.01923          -1.833242           65.81835
       -2.520000          -0.507100           32.96864          -1.823100           65.63629
       -2.510000          -0.506023           32.91817          -1.813183           65.45523
       -2.499999          -0.505000           32.86779          -1.803489           65.27514
       -2.489999          -0.504031           32.81752          -1.794019           65.09601
       -2.479999          -0.503118           32.76736          -1.784773           64.91782
       -2.469999          -0.502261           32.71728          -1.775750           64.74054
       -2.459999          -0.501461           32.66729          -1.766951           64.56415
       -2.449999          -0.500719           32.61737          -1.758376           64.38864
       -2.439999          -0.500037           32.56754          -1.750024           64.21397
       -2.429999          -0.499414           32.51777          -1.741897           64.04012
       -2.419999          -0.498852           32.46806          -1.733995           63.86709
       -2.410000          -0.498353           32.41841          -1.726319           63.69484
       -2.400000          -0.497917           32.36882          -1.718869           63.52333
       -2.390000          -0.497545           32.31926          -1.711647           63.35258
       -2.380000          -0.497240           32.26974          -1.704654           63.18253
       -2.370000          -0.497002           32.22026          -1.697890           63.01317
       -2.360000          -0.496832           32.17080          -1.691358           62.84449
       -2.350000          -0.496733           32.12136          -1.685058           62.67646
       -2.340000          -0.496705           32.07194          -1.678993           62.50905
       -2.330000          -0.496751           32.02251          -1.673163           62.34223
       -2.320000          -0.496872           31.97309          -1.667572           62.17600
       -2.310000          -0.497070           31.92366          -1.662221           62.01032
       -2.300000          -0.497346           31.87420          -1.657113           61.84517
       -2.290000          -0.497702           31.82472          -1.652249           61.68054
       -2.280000          -0.498142           31.77522          -1.647634           61.51637
       -2.270000          -0.498666           31.72566          -1.643269           61.35268
       -2.260000          -0.499277           31.67606          -1.639158           61.18941
       -2.250000          -0.499977           31.62641          -1.635303           61.02656
       -2.240000          -0.500768           31.57668          -1.631708           60.86409
       -2.230000          -0.501654           31.52688          -1.628378           60.70198
       -2.220000          -0.502636           31.47700          -1.625315           60.54020
       -2.210000          -0.503718           31.42702          -1.622524           60.37874
       -2.200000          -0.504902           31.37694          -1.620010           60.21754
       -2.190000          -0.506192           31.32674          -1.617777           60.05661
       -2.180000          -0.507590           31.27643          -1.615829           59.89589
       -2.170000          -0.509100           31.22598          -1.614172           59.73538
       -2.160000          -0.510726           31.17538          -1.612811           59.57503
       -2.150000          -0.512470           31.12463          -1.611753           59.41484
       -2.140000          -0.514337           31.07371          -1.611002           59.25475
       -2.129999          -0.516331           31.02261          -1.610566           59.09473
       -2.119999          -0.518456           30.97132          -1.610452           58.93477
       -2.109999          -0.520716           30.91982          -1.610665           58.77484
       -2.099999          -0.523116           30.86812          -1.611214           58.61489
       -2.089999          -0.525661           30.81618          -1.612107           58.45489
       -2.079999          -0.528356           30.76399          -1.613351           58.29482
       -2.069999          -0.531206           30.71155          -1.614956           58.13463
       -2.059999          -0.534217           30.65883          -1.616930           57.97430
       -2.049999          -0.537394           30.60582          -1.619283           57.81378
       -2.039999          -0.540745           30.55252          -1.622026           57.65305
       -2.029999          -0.544275           30.49889          -1.625168           57.49206
       -2.020000          -0.547991           30.44491          -1.628721           57.33077
       -2.010000          -0.551901           30.39059          -1.632697           57.16915
       -2.000000          -0.556013           30.33589          -1.637107           57.00715
       -1.990000          -0.560333           30.28079          -1.641966           56.84473
       -1.980000          -0.564871           30.22529          -1.647287           56.68185
       -1.970000          -0.569635           30.16935          -1.653083           56.51846
       -1.960000          -0.574636           30.11296          -1.659371           56.35453
       -1.950000          -0.579883           30.05608          -1.666167           56.19000
       -1.940000          -0.585386           29.99871          -1.673486           56.02482
       -1.930000          -0.591157           29.94081          -1.681347           55.85894
       -1.920000          -0.597207           29.88236          -1.689769           55.69231
       -1.910000          -0.603549           29.82334          -1.698771           55.52489
       -1.900000          -0.610196           29.76372          -1.708374           55.35660
       -1.890000          -0.617163           29.70346          -1.718599           55.18739
       -1.880000          -0.624463           29.64254          -1.729471           55.01722
       -1.870000          -0.632112           29.58093          -1.741013           54.84602
       -1.860000          -0.640128           29.51860          -1.753251           54.67371
       -1.850000          -0.648527           29.45550          -1.766213           54.50024
       -1.840000          -0.657330           29.39162          -1.779927           54.32554
       -1.830000          -0.666555           29.32691          -1.794423           54.14953
       -1.820000          -0.676224           29.26132          -1.809734           53.97215
       -1.810000          -0.686360           29.19483          -1.825893           53.79330
       -1.800000          -0.696987           29.12739          -1.842938           53.61294
       -1.790000          -0.708131           29.05894          -1.860906           53.43095
       -1.780000          -0.719819           28.98947          -1.879837           53.24726
       -1.769999          -0.732082           28.91888          -1.899776           53.06176
       -1.759999          -0.744949           28.84716          -1.920766           52.87440
       -1.749999          -0.758456           28.77425          -1.942856           52.68507
       -1.739999          -0.772638           28.70008          -1.966098           52.49364
       -1.729999          -0.787534           28.62460          -1.990547           52.30001
       -1.719999          -0.803185           28.54774          -2.016260           52.10409
       -1.709999          -0.819636           28.46943          -2.043299           51.90575
       -1.699999          -0.836936           28.38962          -2.071732           51.70489
       -1.689999          -0.855136           28.30822          -2.101627           51.50135
       -1.679999          -0.874291           28.22515          -2.133059           51.29501
       -1.669999          -0.894462           28.14034          -2.166110           51.08573
       -1.659999          -0.915713           28.05369          -2.200863           50.87337
       -1.650000          -0.938116           27.96512          -2.237412           50.65777
       -1.640000          -0.961744           27.87453          -2.275853           50.43878
       -1.630000          -0.986682           27.78181          -2.316291           50.21622
       -1.620000          -1.013017           27.68685          -2.358840           49.98992
       -1.610000          -1.040848           27.58955          -2.403618           49.75969
       -1.600000          -1.070278           27.48978          -2.450757           49.52533
       -1.590000          -1.101423           27.38741          -2.500394           49.28663
       -1.580000          -1.134408           27.28230          -2.552679           49.04339
       -1.570000          -1.169370           27.17430          -2.607774           48.79535
       -1.560000          -1.206457           27.06327          -2.665853           48.54230
       -1.550000          -1.245834           26.94903          -2.727103           48.28397
       -1.540000          -1.287679           26.83142          -2.791727           48.02010
       -1.530000          -1.332190           26.71024          -2.859943           47.75038
       -1.520000          -1.379583           26.58530          -2.931990           47.47453
       -1.510000          -1.430097           26.45638          -3.008124           47.19221
       -1.500000          -1.483997           26.32326          -3.088625           46.90311
       -1.490000          -1.541573           26.18571          -3.173797           46.60685
       -1.480000          -1.603149           26.04346          -3.263969           46.30304
       -1.470000          -1.669082           25.89626          -3.359502           45.99131
       -1.460000          -1.739773           25.74380          -3.460787           45.67120
       -1.450000          -1.815664           25.58579          -3.568255           45.34227
       -1.440000          -1.897253           25.42192          -3.682374           45.00403
       -1.430000          -1.985092           25.25181          -3.803660           44.65599
       -1.420000          -2.079806           25.07513          -3.932676           44.29758
       -1.410000          -2.182091           24.89149          -4.070044           43.92822
       -1.399999          -2.292743           24.70047          -4.216457           43.54727
       -1.389999          -2.412632           24.50169          -4.372647           43.15413
       -1.379999          -2.542771           24.29469          -4.539458           42.74807
       -1.369999          -2.684296           24.07904          -4.717811           42.32837
       -1.359999          -2.838498           23.85427          -4.908727           41.89421
       -1.349999          -3.006849           23.61993          -5.113339           41.44477
       -1.339999          -3.191024           23.37557          -5.332912           40.97914
       -1.329999          -3.392944           23.12078          -5.568854           40.49637
       -1.319999          -3.614807           22.85516          -5.822736           39.99548
       -1.309999          -3.859132           22.57840          -6.096321           39.47540
       -1.299999          -4.128819           22.29031          -6.391582           38.93499
       -1.290000          -4.427207           21.99082          -6.710744           38.37309
       -1.280000          -4.758137           21.68010          -7.056310           37.78846
       -1.270000          -5.126039           21.35863          -7.431105           37.17981
       -1.260000          -5.536016           21.02733          -7.838331           36.54581
       -1.250000          -5.993929           20.68770          -8.281617           35.88509
       -1.240000          -6.506491           20.34206          -8.765090           35.19625
       -1.230000          -7.081361           19.99382          -9.293455           34.47795
       -1.220000          -7.727180           19.64788          -9.872078           33.72883
       -1.210000          -8.453588           19.31112          -10.50711           32.94765
       -1.200000          -9.271119           18.99298          -11.20559           32.13335
       -1.190000          -10.19092           18.70638          -11.97560           31.28506
       -1.180000          -11.22424           18.46855          -12.82647           30.40235
       -1.170000          -12.38140           18.30222          -13.76890           29.48529
       -1.160000          -13.67022           18.23674          -14.81524           28.53473
       -1.150000          -15.09361           18.30904          -15.97971           27.55262
       -1.140000          -16.64596           18.56393          -17.27868           26.54238
       -1.130000          -18.30853           19.05314          -18.73096           25.50950
       -1.120000          -20.04404           19.83196          -20.35802           24.46224
       -1.110000          -21.79153           20.95252          -22.18429           23.41260
       -1.100000          -23.46363           22.45299          -24.23723           22.37767
       -1.090000          -24.94945           24.34358          -26.54721           21.38121
       -1.080000          -26.12579           26.59254          -29.14708           20.45584
       -1.070000          -26.87735           29.11809          -32.07101           19.64561
       -1.060000          -27.12173           31.79247          -35.35242           19.00915
       -1.050000          -26.83048           34.46058          -39.02026           18.62313
       -1.040000          -26.03693           36.96850          -43.09328           18.58560
       -1.029999          -24.82697           39.19189          -47.57163           19.01834
       -1.019999          -23.31765           41.05268          -52.42331           20.06641
       -1.009999          -21.63171           42.52318          -57.57109           21.89278
       -0.999999          -19.87845           43.61641          -62.87433           24.66438
       -0.989999          -18.14309           44.37217          -68.11596           28.52669
       -0.979999          -16.48451           44.84319          -72.99977           33.56649
       -0.969999          -14.93829           45.08466          -77.16859           39.76764
       -0.960000          -13.52191           45.14786          -80.24990           46.97351
       -0.950000          -12.24011           45.07695          -81.92542           54.87550
       -0.940000          -11.08949           44.90824          -82.00570           63.04336
       -0.930000          -10.06193           44.67049          -80.48064           70.99712
       -0.920000          -9.146983           44.38594          -77.52221           78.29723
       -0.910000          -8.333385           44.07145          -73.43833           84.61986
       -0.900000          -7.610017           43.73960          -68.59937           89.79202
       -0.890000          -6.966414           43.39960          -63.36677           93.78408
       -0.880000          -6.393016           43.05815          -58.04459           96.67399
       -0.870000          -5.881256           42.72003          -52.85850           98.60291
       -0.860000          -5.423564           42.38852          -47.95676           99.73693
       -0.850000          -5.013291           42.06587          -43.42290           100.2403
       -0.840000          -4.644641           41.75356          -39.29237           100.2603
       -0.830000          -4.312572           41.45244          -35.56805           99.92143
       -0.820000          -4.012702           41.16296          -32.23276           99.32408
       -0.810000          -3.741233           40.88527          -29.25830           98.54705
       -0.800000          -3.494867           40.61931          -26.61154           97.65076
       -0.790000          -3.270734           40.36485          -24.25825           96.68065
       -0.780000          -3.066341           40.12159          -22.16537           95.67045
       -0.770000          -2.879516           39.88913          -20.30223           94.64473
       -0.760000          -2.708360           39.66705          -18.64105           93.62123
       -0.750000          -2.551211           39.45491          -17.15708           92.61242
       -0.740000          -2.406617           39.25225          -15.82854           91.62693
       -0.730000          -2.273296           39.05861          -14.63634           90.67049
       -0.720000          -2.150124           38.87354          -13.56387           89.74674
       -0.710000          -2.036108           38.69664          -12.59668           88.85774
       -0.700000          -1.930366           38.52746          -11.72224           88.00448
       -0.690000          -1.832121           38.36563          -10.92966           87.18708
       -0.680000          -1.740679           38.21076          -10.20951           86.40516
       -0.669999          -1.655418           38.06248          -9.553500           85.65787
       -0.659999          -1.575801           37.92046          -8.954595           84.94424
       -0.649999          -1.501328           37.78440          -8.406503           84.26304
       -0.639999          -1.431561           37.65398          -7.903771           83.61289
       -0.629999          -1.366101           37.52891          -7.441628           82.99249
       -0.619999          -1.304593           37.40894          -7.015888           82.40040
       -0.609999          -1.246717           37.29381          -6.622865           81.83530
       -0.599999          -1.192182           37.18328          -6.259316           81.29584
       -0.589999          -1.140726           37.07713          -5.922373           80.78075
       -0.580000          -1.092112           36.97516          -5.609496           80.28877
       -0.570000          -1.046124           36.87717          -5.318431           79.81875
       -0.560000          -1.002564           36.78298          -5.047176           79.36957
       -0.550000          -0.961256           36.69241          -4.793945           78.94016
       -0.540000          -0.922036           36.60532          -4.557140           78.52952
       -0.530000          -0.884755           36.52153          -4.335336           78.13671
       -0.520000          -0.849275           36.44091          -4.127252           77.76084
       -0.510000          -0.815474           36.36333          -3.931735           77.40107
       -0.500000          -0.783235           36.28866          -3.747751           77.05663
       -0.490000          -0.752454           36.21678          -3.574361           76.72675
       -0.480000          -0.723032           36.14758          -3.410722           76.41080
       -0.470000          -0.694882           36.08095          -3.256070           76.10807
       -0.460000          -0.667920           36.01680          -3.109707           75.81799
       -0.450000          -0.642070           35.95503          -2.971004           75.53996
       -0.440000          -0.617260           35.89555          -2.839385           75.27345
       -0.430000          -0.593427           35.83829          -2.714328           75.01799
       -0.420000          -0.570510           35.78315          -2.595352           74.77307
       -0.410000          -0.548450           35.73008          -2.482020           74.53827
       -0.400000          -0.527198           35.67899          -2.373931           74.31315
       -0.390000          -0.506702           35.62983          -2.270716           74.09734
       -0.380000          -0.486919           35.58252          -2.172036           73.89047
       -0.370000          -0.467805           35.53702          -2.077581           73.69220
       -0.360000          -0.449321           35.49326          -1.987062           73.50219
       -0.350000          -0.431430           35.45120          -1.900214           73.32015
       -0.340000          -0.414096           35.41078          -1.816792           73.14579
       -0.330000          -0.397287           35.37196          -1.736568           72.97883
       -0.320000          -0.380974           35.33470          -1.659333           72.81905
       -0.310000          -0.365125           35.29893          -1.584889           72.66618
       -0.299999          -0.349714           35.26465          -1.513049           72.52000
       -0.289999          -0.334717           35.23180          -1.443656           72.38030
       -0.279999          -0.320110           35.20035          -1.376544           72.24691
       -0.269999          -0.305868           35.17027          -1.311567           72.11962
       -0.259999          -0.291970           35.14151          -1.248585           71.99827
       -0.249999          -0.278397           35.11407          -1.187469           71.88267
       -0.239999          -0.265128           35.08791          -1.128098           71.77270
       -0.229999          -0.252146           35.06298          -1.070356           71.66818
       -0.220000          -0.239432           35.03929          -1.014137           71.56902
       -0.210000          -0.226971           35.01680          -0.959338           71.47506
       -0.200000          -0.214745           34.99551          -0.905864           71.38618
       -0.190000          -0.202740           34.97535          -0.853622           71.30229
       -0.180000          -0.190942           34.95635          -0.802528           71.22328
       -0.170000          -0.179336           34.93847          -0.752499           71.14905
       -0.160000          -0.167909           34.92169          -0.703457           71.07950
       -0.150000          -0.156648           34.90601          -0.655327           71.01457
       -0.140000          -0.145541           34.89140          -0.608039           70.95416
       -0.130000          -0.134575           34.87786          -0.561523           70.89822
       -0.120000          -0.123739           34.86536          -0.515716           70.84666
       -0.110000          -0.113021           34.85391          -0.470552           70.79945
       -0.100000          -0.102412           34.84349          -0.425972           70.75652
       -0.090000          -0.091899           34.83409          -0.381917           70.71782
       -0.080000          -0.081473           34.82569          -0.338328           70.68331
       -0.070000          -0.071124           34.81831          -0.295152           70.65295
       -0.060000          -0.060841           34.81192          -0.252332           70.62670
       -0.050000          -0.050614           34.80652          -0.209817           70.60455
       -0.040000          -0.040435           34.80211          -0.167553           70.58645
       -0.030000          -0.030293           34.79869          -0.125490           70.57240
       -0.020000          -0.020179           34.79624          -0.083577           70.56237
       -0.010000          -0.010083           34.79478          -0.041764           70.55636
        0.000000           0.267009E-5        34.79428           0.000000           70.55435
        0.010000           0.010089           34.79478           0.041764           70.55637
        0.020000           0.020184           34.79624           0.083577           70.56237
        0.030000           0.030298           34.79869           0.125490           70.57240
        0.040000           0.040440           34.80211           0.167553           70.58645
        0.050000           0.050620           34.80652           0.209817           70.60455
        0.060001           0.060847           34.81192           0.252336           70.62671
        0.070001           0.071130           34.81831           0.295155           70.65295
        0.080001           0.081479           34.82569           0.338332           70.68331
        0.090001           0.091905           34.83409           0.381920           70.71782
        0.100001           0.102418           34.84349           0.425976           70.75652
        0.110001           0.113028           34.85392           0.470556           70.79945
        0.120001           0.123745           34.86536           0.515720           70.84668
        0.130001           0.134581           34.87786           0.561527           70.89822
        0.140000           0.145547           34.89140           0.608043           70.95416
        0.150000           0.156654           34.90601           0.655331           71.01457
        0.160000           0.167915           34.92170           0.703460           71.07951
        0.170000           0.179342           34.93847           0.752503           71.14906
        0.180000           0.190948           34.95636           0.802532           71.22329
        0.190000           0.202747           34.97535           0.853626           71.30230
        0.200000           0.214751           34.99550           0.905867           71.38619
        0.210000           0.226977           35.01681           0.959342           71.47507
        0.220000           0.239439           35.03929           1.014142           71.56904
        0.230000           0.252152           35.06299           1.070361           71.66821
        0.240000           0.265135           35.08791           1.128103           71.77270
        0.250000           0.278403           35.11407           1.187474           71.88269
        0.260000           0.291977           35.14152           1.248590           71.99828
        0.270000           0.305874           35.17027           1.311572           72.11964
        0.280000           0.320116           35.20035           1.376550           72.24693
        0.290000           0.334724           35.23180           1.443661           72.38032
        0.300000           0.349721           35.26465           1.513055           72.52000
        0.310000           0.365130           35.29893           1.584889           72.66618
        0.320000           0.380979           35.33469           1.659333           72.81905
        0.330000           0.397293           35.37196           1.736568           72.97883
        0.340000           0.414101           35.41079           1.816792           73.14579
        0.350000           0.431435           35.45120           1.900214           73.32015
        0.360000           0.449326           35.49326           1.987062           73.50220
        0.370000           0.467810           35.53702           2.077581           73.69221
        0.380000           0.486924           35.58252           2.172036           73.89048
        0.390000           0.506707           35.62982           2.270716           74.09735
        0.400000           0.527202           35.67899           2.373931           74.31314
        0.410000           0.548455           35.73007           2.482020           74.53827
        0.420000           0.570514           35.78315           2.595352           74.77307
        0.430001           0.593434           35.83829           2.714338           75.01801
        0.440001           0.617267           35.89555           2.839396           75.27349
        0.450001           0.642076           35.95503           2.971015           75.53998
        0.460001           0.667926           36.01680           3.109718           75.81801
        0.470001           0.694888           36.08095           3.256082           76.10809
        0.480001           0.723039           36.14758           3.410736           76.41082
        0.490001           0.752460           36.21678           3.574374           76.72678
        0.500001           0.783242           36.28866           3.747764           77.05666
        0.510000           0.815480           36.36333           3.931750           77.40110
        0.520000           0.849282           36.44091           4.127268           77.76086
        0.530000           0.884761           36.52153           4.335354           78.13674
        0.540000           0.922042           36.60532           4.557158           78.52955
        0.550000           0.961263           36.69241           4.793964           78.94019
        0.560000           1.002571           36.78299           5.047197           79.36960
        0.570000           1.046129           36.87717           5.318455           79.81879
        0.580000           1.092118           36.97516           5.609519           80.28882
        0.590000           1.140732           37.07713           5.922399           80.78078
        0.600000           1.192187           37.18328           6.259345           81.29588
        0.610000           1.246722           37.29380           6.622896           81.83534
        0.620000           1.304598           37.40894           7.015920           82.40044
        0.630000           1.366105           37.52891           7.441664           82.99253
        0.640000           1.431565           37.65398           7.903810           83.61295
        0.650000           1.501333           37.78440           8.406545           84.26308
        0.660000           1.575804           37.92047           8.954642           84.94430
        0.670000           1.655421           38.06247           9.553550           85.65793
        0.680000           1.740674           38.21074           10.20951           86.40516
        0.690000           1.832115           38.36562           10.92966           87.18709
        0.700000           1.930359           38.52745           11.72224           88.00448
        0.710000           2.036099           38.69662           12.59668           88.85774
        0.720000           2.150115           38.87352           13.56387           89.74674
        0.730000           2.273285           39.05858           14.63634           90.67049
        0.740000           2.406603           39.25222           15.82854           91.62693
        0.750000           2.551196           39.45489           17.15708           92.61242
        0.760000           2.708342           39.66703           18.64105           93.62122
        0.770000           2.879495           39.88910           20.30223           94.64473
        0.780000           3.066318           40.12156           22.16537           95.67045
        0.790001           3.270724           40.36484           24.25842           96.68073
        0.800001           3.494854           40.61930           26.61174           97.65083
        0.810001           3.741219           40.88525           29.25853           98.54712
        0.820001           4.012684           41.16294           32.23302           99.32413
        0.830001           4.312550           41.45242           35.56834           99.92148
        0.840001           4.644616           41.75355           39.29269           100.2604
        0.850001           5.013261           42.06586           43.42326           100.2403
        0.860000           5.423529           42.38849           47.95714           99.73687
        0.870000           5.881217           42.72001           52.85891           98.60279
        0.880000           6.392968           43.05814           58.04501           96.67379
        0.890000           6.966360           43.39959           63.36721           93.78381
        0.900000           7.609953           43.73957           68.59978           89.79163
        0.910000           8.333311           44.07144           73.43870           84.61938
        0.920000           9.146898           44.38593           77.52250           78.29668
        0.930000           10.06184           44.67049           80.48082           70.99650
        0.940000           11.08938           44.90824           82.00576           63.04270
        0.950000           12.23999           45.07698           81.92534           54.87484
        0.960000           13.52178           45.14790           80.24971           46.97290
        0.970000           14.93815           45.08472           77.16829           39.76709
        0.980000           16.48435           44.84327           72.99939           33.56603
        0.990000           18.14292           44.37228           68.11554           28.52633
        1.000000           19.87830           43.61657           62.87391           24.66410
        1.010000           21.63157           42.52339           57.57066           21.89259
        1.020000           23.31752           41.05293           52.42291           20.06629
        1.030000           24.82690           39.19217           47.57124           19.01828
        1.040000           26.03684           36.96902           43.09328           18.58560
        1.050000           26.83048           34.46112           39.02026           18.62313
        1.060000           27.12185           31.79301           35.35242           19.00915
        1.070000           26.87757           29.11860           32.07101           19.64561
        1.080000           26.12610           26.59298           29.14708           20.45584
        1.090000           24.94983           24.34394           26.54721           21.38121
        1.100000           23.46405           22.45326           24.23723           22.37766
        1.110000           21.79195           20.95271           22.18429           23.41260
        1.120000           20.04447           19.83206           20.35802           24.46223
        1.130000           18.30892           19.05318           18.73096           25.50950
        1.140000           16.64631           18.56391           17.27868           26.54239
        1.150000           15.09393           18.30898           15.97971           27.55263
        1.160001           13.67040           18.23666           14.81515           28.53481
        1.170001           12.38154           18.30213           13.76882           29.48536
        1.180001           11.22437           18.46845           12.82640           30.40242
        1.190001           10.19103           18.70629           11.97554           31.28514
        1.200001           9.271211           18.99289           11.20552           32.13341
        1.210001           8.453664           19.31103           10.50705           32.94772
        1.220001           7.727243           19.64780           9.872030           33.72889
        1.230000           7.081412           19.99374           9.293409           34.47801
        1.240000           6.506534           20.34197           8.765050           35.19631
        1.250000           5.993960           20.68762           8.281579           35.88513
        1.260000           5.536044           21.02725           7.838295           36.54586
        1.270000           5.126062           21.35856           7.431074           37.17986
        1.280000           4.758153           21.68004           7.056281           37.78851
        1.290000           4.427219           21.99076           6.710717           38.37313
        1.300000           4.128829           22.29025           6.391558           38.93504
        1.310000           3.859137           22.57836           6.096298           39.47544
        1.320000           3.614809           22.85511           5.822715           39.99552
        1.330000           3.392945           23.12073           5.568834           40.49641
        1.340000           3.191023           23.37554           5.332894           40.97917
        1.350000           3.006844           23.61989           5.113322           41.44480
        1.360000           2.838493           23.85424           4.908710           41.89425
        1.370000           2.684290           24.07901           4.717795           42.32840
        1.380000           2.542764           24.29467           4.539444           42.74812
        1.390000           2.412624           24.50167           4.372634           43.15417
        1.400000           2.292734           24.70045           4.216445           43.54730
        1.410000           2.182090           24.89146           4.070044           43.92821
        1.420000           2.079803           25.07510           3.932676           44.29758
        1.430000           1.985089           25.25178           3.803660           44.65599
        1.440000           1.897248           25.42189           3.682374           45.00404
        1.450000           1.815660           25.58577           3.568255           45.34227
        1.460000           1.739767           25.74378           3.460787           45.67119
        1.470000           1.669076           25.89624           3.359501           45.99131
        1.480000           1.603141           26.04344           3.263969           46.30304
        1.490000           1.541565           26.18569           3.173797           46.60685
        1.500000           1.483989           26.32325           3.088625           46.90311
        1.510000           1.430089           26.45636           3.008124           47.19221
        1.520001           1.379570           26.58529           2.931984           47.47456
        1.530001           1.332177           26.71024           2.859937           47.75041
        1.540001           1.287666           26.83142           2.791721           48.02012
        1.550001           1.245820           26.94903           2.727098           48.28400
        1.560001           1.206444           27.06327           2.665848           48.54234
        1.570001           1.169357           27.17430           2.607769           48.79538
        1.580001           1.134395           27.28230           2.552675           49.04340
        1.590001           1.101410           27.38741           2.500389           49.28665
        1.600001           1.070265           27.48978           2.450752           49.52534
        1.610000           1.040835           27.58955           2.403615           49.75971
        1.620000           1.013004           27.68686           2.358836           49.98994
        1.630000           0.986669           27.78181           2.316288           50.21625
        1.640000           0.961732           27.87453           2.275849           50.43880
        1.650000           0.938103           27.96513           2.237409           50.65779
        1.660000           0.915701           28.05370           2.200861           50.87338
        1.670000           0.894449           28.14035           2.166107           51.08574
        1.680000           0.874278           28.22516           2.133057           51.29502
        1.690000           0.855123           28.30824           2.101624           51.50135
        1.700000           0.836923           28.38963           2.071729           51.70490
        1.710000           0.819624           28.46945           2.043297           51.90578
        1.720000           0.803172           28.54776           2.016257           52.10411
        1.730000           0.787521           28.62461           1.990545           52.30003
        1.740000           0.772625           28.70010           1.966096           52.49365
        1.750000           0.758444           28.77427           1.942854           52.68508
        1.760000           0.744937           28.84718           1.920764           52.87443
        1.770000           0.732070           28.91890           1.899774           53.06179
        1.780000           0.719808           28.98948           1.879837           53.24726
        1.790000           0.708120           29.05896           1.860905           53.43095
        1.800000           0.696976           29.12740           1.842938           53.61294
        1.810000           0.686349           29.19484           1.825893           53.79330
        1.820000           0.676213           29.26134           1.809734           53.97215
        1.830000           0.666544           29.32692           1.794423           54.14953
        1.840000           0.657319           29.39164           1.779926           54.32554
        1.850000           0.648516           29.45552           1.766213           54.50024
        1.860000           0.640117           29.51862           1.753251           54.67371
        1.870000           0.632101           29.58095           1.741013           54.84602
        1.880000           0.624452           29.64256           1.729471           55.01722
        1.890001           0.617151           29.70348           1.718598           55.18741
        1.900001           0.610185           29.76374           1.708373           55.35661
        1.910001           0.603538           29.82336           1.698770           55.52490
        1.920001           0.597196           29.88239           1.689768           55.69232
        1.930001           0.591146           29.94083           1.681346           55.85895
        1.940001           0.585375           29.99873           1.673485           56.02483
        1.950001           0.579872           30.05611           1.666166           56.19001
        1.960001           0.574625           30.11298           1.659371           56.35453
        1.970001           0.569625           30.16938           1.653083           56.51848
        1.980000           0.564860           30.22532           1.647286           56.68186
        1.990000           0.560322           30.28082           1.641966           56.84474
        2.000000           0.556002           30.33592           1.637107           57.00717
        2.010000           0.551891           30.39062           1.632696           57.16917
        2.020000           0.547981           30.44494           1.628721           57.33078
        2.030000           0.544265           30.49891           1.625168           57.49207
        2.040000           0.540735           30.55255           1.622025           57.65305
        2.050000           0.537384           30.60585           1.619283           57.81379
        2.060000           0.534207           30.65886           1.616930           57.97431
        2.070000           0.531196           30.71158           1.614956           58.13464
        2.080000           0.528346           30.76402           1.613351           58.29483
        2.090000           0.525651           30.81621           1.612107           58.45490
        2.100000           0.523106           30.86815           1.611214           58.61490
        2.110000           0.520706           30.91986           1.610665           58.77485
        2.120000           0.518446           30.97135           1.610452           58.93479
        2.130000           0.516321           31.02264           1.610567           59.09474
        2.140000           0.514327           31.07374           1.611002           59.25475
        2.150000           0.512460           31.12466           1.611753           59.41484
        2.160000           0.510716           31.17542           1.612811           59.57504
        2.170000           0.509091           31.22601           1.614172           59.73538
        2.180000           0.507581           31.27646           1.615829           59.89590
        2.190000           0.506183           31.32678           1.617777           60.05661
        2.200000           0.504893           31.37697           1.620010           60.21754
        2.210000           0.503709           31.42705           1.622525           60.37874
        2.220000           0.502627           31.47703           1.625316           60.54020
        2.230000           0.501645           31.52691           1.628378           60.70198
        2.240000           0.500759           31.57672           1.631708           60.86409
        2.250000           0.499968           31.62644           1.635303           61.02656
        2.260001           0.499267           31.67610           1.639158           61.18943
        2.270001           0.498657           31.72570           1.643269           61.35269
        2.280001           0.498133           31.77525           1.647634           61.51639
        2.290001           0.497693           31.82476           1.652250           61.68055
        2.300000           0.497337           31.87424           1.657113           61.84518
        2.310000           0.497061           31.92369           1.662222           62.01033
        2.320000           0.496863           31.97313           1.667572           62.17601
        2.330000           0.496742           32.02256           1.673164           62.34224
        2.340000           0.496697           32.07198           1.678993           62.50906
        2.350000           0.496724           32.12141           1.685059           62.67646
        2.360000           0.496824           32.17085           1.691358           62.84451
        2.370000           0.496993           32.22030           1.697891           63.01319
        2.380000           0.497231           32.26979           1.704654           63.18255
        2.390000           0.497537           32.31930           1.711648           63.35259
        2.400000           0.497908           32.36885           1.718870           63.52336
        2.410000           0.498344           32.41846           1.726320           63.69484
        2.420000           0.498844           32.46811           1.733996           63.86710
        2.430000           0.499406           32.51781           1.741898           64.04014
        2.440000           0.500028           32.56758           1.750025           64.21398
        2.450000           0.500711           32.61742           1.758376           64.38865
        2.460000           0.501453           32.66733           1.766952           64.56416
        2.470000           0.502253           32.71733           1.775751           64.74055
        2.480000           0.503110           32.76741           1.784773           64.91783
        2.490000           0.504023           32.81757           1.794020           65.09602
        2.500000           0.504992           32.86784           1.803490           65.27514
        2.510000           0.506015           32.91821           1.813183           65.45523
        2.520000           0.507092           32.96869           1.823100           65.63629
        2.530000           0.508221           33.01928           1.833242           65.81835
        2.540000           0.509403           33.06999           1.843608           66.00145
        2.550000           0.510637           33.12082           1.854200           66.18557
        2.560000           0.511922           33.17177           1.865018           66.37078
        2.570000           0.513257           33.22287           1.876062           66.55707
        2.580000           0.514642           33.27409           1.887334           66.74448
        2.590000           0.516076           33.32547           1.898835           66.93301
        2.600000           0.517559           33.37700           1.910565           67.12271
        2.610000           0.519090           33.42866           1.922528           67.31358
        2.620001           0.520669           33.48050           1.934723           67.50568
        2.630001           0.522296           33.53249           1.947151           67.69899
        2.640001           0.523969           33.58464           1.959814           67.89355
        2.650001           0.525689           33.63697           1.972714           68.08938
        2.660001           0.527455           33.68947           1.985854           68.28650
        2.670001           0.529267           33.74216           1.999233           68.48495
        2.680001           0.531125           33.79502           2.012855           68.68473
        2.690001           0.533028           33.84808           2.026721           68.88589
        2.700001           0.534976           33.90133           2.040835           69.08843
        2.710001           0.536969           33.95478           2.055197           69.29240
        2.720001           0.539007           34.00843           2.069810           69.49780
        2.730000           0.541089           34.06229           2.084677           69.70467
        2.740000           0.543215           34.11636           2.099801           69.91303
        2.750000           0.545385           34.17064           2.115183           70.12291
        2.760000           0.547599           34.22514           2.130827           70.33432
        2.770000           0.549857           34.27987           2.146736           70.54731
        2.780000           0.552158           34.33482           2.162913           70.76189
        2.790000           0.554504           34.39001           2.179361           70.97809
        2.800000           0.556892           34.44544           2.196083           71.19594
        2.810000           0.559324           34.50110           2.213082           71.41546
        2.820000           0.561800           34.55701           2.230363           71.63669
        2.830000           0.564319           34.61318           2.247927           71.85963
        2.840000           0.566881           34.66959           2.265782           72.08435
        2.850000           0.569487           34.72627           2.283927           72.31084
        2.860000           0.572136           34.78320           2.302369           72.53916
        2.870000           0.574829           34.84040           2.321111           72.76932
        2.880000           0.577565           34.89788           2.340158           73.00136
        2.890000           0.580345           34.95563           2.359515           73.23530
        2.900000           0.583169           35.01366           2.379184           73.47117
        2.910000           0.586037           35.07197           2.399173           73.70902
        2.920000           0.588949           35.13058           2.419483           73.94885
        2.930000           0.591904           35.18947           2.440123           74.19073
        2.940000           0.594904           35.24866           2.461095           74.43466
        2.950000           0.597949           35.30816           2.482406           74.68069
        2.960000           0.601038           35.36796           2.504061           74.92885
        2.970000           0.604172           35.42806           2.526066           75.17918
        2.980000           0.607351           35.48849           2.548425           75.43169
        2.990001           0.610576           35.54924           2.571148           75.68648
        3.000001           0.613846           35.61031           2.594237           75.94350
        3.010000           0.617162           35.67171           2.617699           76.20283
        3.020000           0.620524           35.73344           2.641542           76.46452
        3.030000           0.623933           35.79551           2.665772           76.72856
        3.040000           0.627388           35.85792           2.690396           76.99504
        3.050000           0.630890           35.92067           2.715420           77.26398
        3.060000           0.634439           35.98378           2.740853           77.53541
        3.070000           0.638037           36.04725           2.766701           77.80938
        3.080000           0.641682           36.11107           2.792974           78.08593
        3.090000           0.645376           36.17526           2.819677           78.36510
        3.100000           0.649119           36.23982           2.846821           78.64694
        3.110000           0.652911           36.30476           2.874412           78.93148
        3.120000           0.656753           36.37007           2.902460           79.21877
        3.130000           0.660645           36.43577           2.930974           79.50887
        3.140000           0.664588           36.50187           2.959963           79.80181
        3.150000           0.668582           36.56835           2.989436           80.09763
        3.160000           0.672627           36.63524           3.019403           80.39640
        3.170000           0.676725           36.70254           3.049875           80.69816
        3.180000           0.680876           36.77024           3.080861           81.00294
        3.190000           0.685079           36.83836           3.112373           81.31084
        3.200000           0.689337           36.90690           3.144421           81.62186
        3.210000           0.693649           36.97586           3.177016           81.93605
        3.220000           0.698017           37.04527           3.210170           82.25352
        3.230000           0.702439           37.11510           3.243896           82.57429
        3.240000           0.706918           37.18538           3.278205           82.89841
        3.250000           0.711455           37.25611           3.313110           83.22596
        3.260000           0.716048           37.32728           3.348625           83.55697
        3.270000           0.720700           37.39893           3.384763           83.89153
        3.280000           0.725412           37.47104           3.421538           84.22968
        3.290000           0.730183           37.54361           3.458963           84.57149
        3.300000           0.735015           37.61667           3.497056           84.91702
        3.310000           0.739908           37.69021           3.535829           85.26637
        3.320000           0.744863           37.76423           3.575300           85.61954
        3.330000           0.749881           37.83876           3.615485           85.97665
        3.340000           0.754964           37.91379           3.656399           86.33778
        3.350001           0.760111           37.98933           3.698064           86.70297
        3.360001           0.765324           38.06538           3.740492           87.07232
        3.370001           0.770604           38.14195           3.783704           87.44585
        3.380001           0.775951           38.21906           3.827719           87.82369
        3.390001           0.781367           38.29669           3.872557           88.20589
        3.400001           0.786852           38.37486           3.918238           88.59259
        3.410001           0.792408           38.45359           3.964783           88.98379
        3.420001           0.798035           38.53288           4.012214           89.37962
        3.430001           0.803736           38.61272           4.060553           89.78016
        3.440001           0.809510           38.69313           4.109824           90.18551
        3.450001           0.815359           38.77412           4.160050           90.59576
        3.460000           0.821285           38.85570           4.211257           91.01099
        3.470000           0.827287           38.93786           4.263470           91.43128
        3.480000           0.833369           39.02063           4.316715           91.85678
        3.490000           0.839531           39.10401           4.371021           92.28754
        3.500000           0.845774           39.18800           4.426415           92.72371
        3.510000           0.852099           39.27261           4.482927           93.16537
        3.520000           0.858509           39.35786           4.540588           93.61263
        3.530000           0.865004           39.44375           4.599429           94.06561
        3.540000           0.871586           39.53029           4.659483           94.52441
        3.550000           0.878256           39.61748           4.720782           94.98918
        3.560000           0.885016           39.70534           4.783365           95.46000
        3.570000           0.891869           39.79388           4.847267           95.93703
        3.580000           0.898814           39.88309           4.912524           96.42039
        3.590000           0.905853           39.97300           4.979177           96.91020
        3.600000           0.912990           40.06363           5.047266           97.40663
        3.610000           0.920225           40.15496           5.116833           97.90977
        3.620001           0.927560           40.24702           5.187928           98.41986
        3.630000           0.934997           40.33979           5.260580           98.93689
        3.640001           0.942538           40.43332           5.334859           99.46118
        3.650000           0.950184           40.52759           5.410792           99.99272
        3.660001           0.957940           40.62264           5.488452           100.5318
        3.670000           0.965804           40.71844           5.567869           101.0786
        3.680001           0.973781           40.81506           5.649123           101.6332
        3.690000           0.981872           40.91244           5.732246           102.1958
        3.700001           0.990080           41.01065           5.817324           102.7667
        3.710000           0.998406           41.10967           5.904393           103.3458
        3.720001           1.006855           41.20953           5.993546           103.9337
        3.730000           1.015426           41.31021           6.084822           104.5302
        3.740000           1.024125           41.41177           6.178320           105.1359
        3.750000           1.032952           41.51418           6.274085           105.7506
        3.760000           1.041911           41.61749           6.372223           106.3749
        3.770000           1.051004           41.72166           6.472785           107.0087
        3.780000           1.060235           41.82677           6.575886           107.6525
        3.790000           1.069605           41.93279           6.681580           108.3064
        3.800000           1.079119           42.03975           6.789993           108.9707
        3.810000           1.088779           42.14763           6.901183           109.6456
        3.820000           1.098589           42.25651           7.015288           110.3315
        3.830000           1.108551           42.36633           7.132376           111.0286
        3.840000           1.118670           42.47718           7.252592           111.7372
        3.849999           1.128948           42.58900           7.376013           112.4574
        3.860000           1.139391           42.70188           7.502800           113.1899
        3.869999           1.149999           42.81578           7.633035           113.9347
        3.880000           1.160779           42.93074           7.766892           114.6923
        3.889999           1.171733           43.04676           7.904467           115.4629
        3.900000           1.182868           43.16389           8.045947           116.2471
        3.910001           1.194186           43.28213           8.191464           117.0451
        3.920000           1.205689           43.40148           8.341153           117.8572
        3.930001           1.217387           43.52199           8.495231           118.6840
        3.940000           1.229279           43.64365           8.653819           119.5257
        3.950001           1.241375           43.76651           8.817161           120.3830
        3.960000           1.253675           43.89054           8.985397           121.2560
        3.970001           1.266189           44.01583           9.158785           122.1455
        3.980000           1.278918           44.14234           9.337487           123.0518
        3.990001           1.291872           44.27013           9.521790           123.9755
        4.000000           1.305051           44.39919           9.711872           124.9169
        4.010001           1.318466           44.52958           9.908049           125.8769
        4.020000           1.332120           44.66129           10.11053           126.8558
        4.030001           1.346022           44.79436           10.31966           127.8544
        4.040000           1.360174           44.92881           10.53567           128.8730
        4.050001           1.374588           45.06467           10.75896           129.9127
        4.060000           1.389266           45.20193           10.98977           130.9736
        4.070001           1.404221           45.34068           11.22855           132.0570
        4.080000           1.419454           45.48090           11.47560           133.1632
        4.090001           1.434978           45.62265           11.73138           134.2932
        4.100000           1.450797           45.76591           11.99625           135.4476
        4.110001           1.466923           45.91077           12.27075           136.6276
        4.120000           1.483361           46.05721           12.55525           137.8336
        4.130001           1.500124           46.20529           12.85038           139.0669
        4.140000           1.517217           46.35501           13.15656           140.3282
        4.150001           1.534655           46.50645           13.47449           141.6188
        4.160000           1.552441           46.65958           13.80467           142.9394
        4.170001           1.570593           46.81451           14.14788           144.2915
        4.180000           1.589114           46.97122           14.50470           145.6759
        4.190001           1.608022           47.12978           14.87601           147.0942
        4.199999           1.627324           47.29018           15.26249           148.5473
        4.210001           1.647037           47.45251           15.66512           150.0369
        4.219999           1.667167           47.61676           16.08471           151.5640
        4.230000           1.687735           47.78304           16.52238           153.1307
        4.239999           1.708747           47.95132           16.97906           154.7380
        4.250000           1.730224           48.12170           17.45604           156.3880
        4.259999           1.752175           48.29417           17.95441           158.0820
        4.270000           1.774621           48.46884           18.47565           159.8224
        4.280001           1.797576           48.64572           19.02114           161.6109
        4.290000           1.821053           48.82484           19.59230           163.4493
        4.300001           1.845076           49.00630           20.19103           165.3403
        4.310000           1.869657           49.19009           20.81893           167.2856
        4.320001           1.894822           49.37634           21.47818           169.2883
        4.330000           1.920583           49.56504           22.17070           171.3503
        4.340001           1.946970           49.75630           22.89903           173.4751
        4.350000           1.973996           49.95012           23.66547           175.6649
        4.360001           2.001693           50.14662           24.47301           177.9234
        4.370000           2.030075           50.34582           25.32440           180.2533
        4.380001           2.059176           50.54784           26.22319           182.6586
        4.390000           2.089015           50.75268           27.17268           185.1424
        4.400001           2.119627           50.96048           28.17711           187.7094
        4.410000           2.151031           51.17125           29.24047           190.3628
        4.420001           2.183270           51.38513           30.36787           193.1080
        4.430000           2.216362           51.60213           31.56416           195.9488
        4.440001           2.250352           51.82241           32.83549           198.8911
        4.450000           2.285264           52.04596           34.18784           201.9394
        4.460001           2.321147           52.27297           35.62868           205.1001
        4.470000           2.358027           52.50344           37.16541           208.3785
        4.480000           2.395957           52.73755           38.80719           211.7818
        4.490000           2.434966           52.97532           40.56317           215.3158
        4.500000           2.475114           53.21693           42.44474           218.9888
        4.510000           2.516434           53.46240           44.46336           222.8073
        4.520000           2.558989           53.71193           46.63322           226.7805
        4.530000           2.602818           53.96557           48.96881           230.9157
        4.540000           2.647992           54.22348           51.48794           235.2232
        4.550000           2.694554           54.48576           54.20910           239.7107
        4.560000           2.742580           54.75256           57.15491           244.3896
        4.570000           2.792122           55.02399           60.34911           249.2683
        4.580000           2.843265           55.30022           63.82071           254.3586
        4.590000           2.896064           55.58138           67.60043           259.6691
        4.600000           2.950616           55.86766           71.72581           265.2117
        4.610000           3.006985           56.15915           76.23702           270.9943
        4.620000           3.065276           56.45611           81.18305           277.0277
        4.630001           3.125573           56.75867           86.61769           283.3184
        4.640000           3.187965           57.06697           92.60258           289.8708
        4.650001           3.252577           57.38129           99.21173           296.6891
        4.660000           3.319497           57.70173           106.5260           303.7688
        4.670001           3.388869           58.02864           114.6434           311.1033
        4.680000           3.460794           58.36209           123.6714           318.6726
        4.690001           3.535430           58.70246           133.7397           326.4489
        4.700000           3.612898           59.04984           144.9901           334.3828
        4.710001           3.693376           59.40464           157.5921           342.4070
        4.720000           3.777002           59.76699           171.7290           350.4182
        4.730001           3.863979           60.13730           187.6155           358.2769
        4.740000           3.954465           60.51574           205.4768           365.7841
        4.750001           4.048692           60.90275           225.5648           372.6738
        4.760000           4.146846           61.29855           248.1240           378.5835
        4.770001           4.249191           61.70358           273.3987           383.0381
        4.780000           4.355941           62.11810           301.5711           385.4175
        4.790000           4.467403           62.54261           332.7444           384.9390
        4.800000           4.583827           62.97741           366.8331           380.6433
        4.810000           4.705563           63.42303           403.5052           371.4073
        4.820000           4.832909           63.87981           442.0195           356.0117
        4.830000           4.966269           64.34836           481.1544           333.2588
        4.840000           5.105995           64.82903           519.0813           302.2144
        4.850000           5.252559           65.32253           553.4446           262.4778
        4.860000           5.406373           65.82924           581.5196           214.5429
        4.870000           5.567994           66.34994           600.6648           159.9688
        4.880000           5.737913           66.88512           608.8345           101.4180
        4.890000           5.916779           67.43558           605.1091           42.24121
        4.900000           6.105188           68.00188           589.9369          -14.05415
        4.910000           6.303904           68.58497           565.0062          -64.52785
        4.920000           6.513641           69.18546           532.8238          -107.1909
        4.930000           6.735315           69.80440           496.1280          -141.2039
        4.940000           6.969784           70.44249           457.4552          -166.6718
        4.950000           7.218147           71.10093           418.8163          -184.3864
        4.960000           7.481451           71.78053           381.6595          -195.4751
        4.970000           7.761019           72.48256           346.8687          -201.1730
        4.980000           8.058134           73.20801           314.9214          -202.6452
        4.990000           8.374405           73.95834           285.9654          -200.9125
        5.000001           8.711466           74.73473           259.9626          -196.8198
        5.010000           9.071120           75.53848           236.7539          -191.0430
        5.020001           9.455563           76.37130           216.1072          -184.1040
        5.030000           9.866977           77.23452           197.7807          -176.4037
        5.040001           10.30808           78.13008           181.5193          -168.2374
        5.050000           10.78162           79.05946           167.0920          -159.8273
        5.060001           11.29099           80.02482           154.2768          -151.3299
        5.070000           11.83966           81.02782           142.8830          -142.8614
        5.080001           12.43192           82.07084           132.7337          -134.4982
        5.090000           13.07221           83.15568           123.6806          -126.2969
        5.100001           13.76598           84.28492           115.5881          -118.2898
        5.110000           14.51894           85.46045           108.3436          -110.5003
        5.120001           15.33810           86.68499           101.8447          -102.9370
        5.130000           16.23087           87.96044           96.00677          -95.60605
        5.140001           17.20635           89.28944           90.75276          -88.50340
        5.150000           18.27425           90.67367           86.01911          -81.62620
        5.160001           19.44644           92.11540           81.74771          -74.96451
        5.170000           20.73576           93.61562           77.89075          -68.51105
        5.180001           22.15784           95.17567           74.40414          -62.25330
        5.190000           23.72972           96.79502           71.25175          -56.18216
        5.200001           25.47207           98.47292           68.39998          -50.28430
        5.210000           27.40758           100.2058           65.82134          -44.55019
        5.220001           29.56360           101.9889           63.49011          -38.96658
        5.230000           31.97014           103.8128           61.38528          -33.52415
        5.240000           34.66309           105.6649           59.48714          -28.21026
        5.250000           37.68148           107.5254           57.77955          -23.01605
        5.260000           41.07122           109.3675           56.24738          -17.92962
        5.270000           44.88094           111.1522           54.87829          -12.94265
        5.280000           49.16578           112.8276           53.66071          -8.044029
        5.289999           53.98056           114.3221           52.58526          -3.226088
        5.300000           59.38213           115.5414           51.64318           1.521696
        5.309999           65.41710           116.3611           50.82745           6.206444
        5.320000           72.11975           116.6224           50.13163           10.83810
        5.329999           79.49005           116.1277           49.55062           15.42332
        5.340000           87.48288           114.6403           49.07990           19.97160
        5.349999           95.97356           111.8942           48.71601           24.48934
        5.360000           104.7408           107.6133           48.45608           28.98563
        5.370001           113.4342           101.5549           48.29813           33.46733
        5.380000           121.5730           93.56998           48.24080           37.94125
        5.390001           128.5767           83.67016           48.28342           42.41627
        5.400000           133.8291           72.10114           48.42603           46.89841
        5.410001           136.7994           59.35243           48.66938           51.39654
        5.420000           137.1594           46.12650           49.01478           55.91672
        5.430001           134.8736           33.20815           49.46451           60.46795
        5.440000           130.2090           21.33282           50.02126           65.05648
        5.450001           123.6608           11.04378           50.68887           69.69153
        5.460000           115.8379           2.644453           51.47164           74.37955
        5.470001           107.3366          -3.805862           52.37519           79.13024
        5.480000           98.66738          -8.424306           53.40563           83.95029
        5.490001           90.20747          -11.44007           54.57076           88.84995
        5.500000           82.21141          -13.12409           55.87886           93.83633
        5.510001           74.82056          -13.74794           57.34035           98.92017
        5.520000           68.10048          -13.55581           58.96627           104.1092
        5.530001           62.05737          -12.75445           60.77032           109.4146
        5.540000           56.66758          -11.51159           62.76702           114.8446
        5.550001           51.88505          -9.958439           64.97431           120.4111
        5.560000           47.65856          -8.196542           67.41122           126.1225
        5.570001           43.93214          -6.301589           70.10118           131.9910
        5.580000           40.65440          -4.330951           73.06924           138.0250
        5.590001           37.77579          -2.325767           76.34604           144.2367
        5.600000           35.25384          -0.317202           79.96461           150.6336
        5.610001           33.04968           1.673193           83.96528           157.2267
        5.619999           31.13122           3.628513           88.39174           164.0213
        5.630001           29.46996           5.537271           93.29723           171.0253
        5.639999           28.04298           7.389277           98.73985           178.2387
        5.650001           26.83027           9.176894           104.7901           185.6626
        5.659999           25.81594           10.89158           111.5252           193.2872
        5.670001           24.98591           12.52520           119.0384           201.0996
        5.679999           24.32829           14.06699           127.4318           209.0707
        5.690000           23.83113           15.50491           136.8276           217.1617
        5.699999           23.48166           16.82323           147.3582           225.3078
        5.710000           23.26375           18.00450           159.1794           233.4224
        5.719999           23.15594           19.02862           172.4557           241.3769
        5.730000           23.12893           19.87658           187.3732           249.0000
        5.740001           23.14398           20.53305           204.1190           256.0542
        5.750000           23.15314           20.99221           222.8744           262.2232
        5.760001           23.10253           21.26365           243.8053           267.0959
        5.770000           22.93934           21.37610           267.0078           270.1422
        5.780001           22.62141           21.37786           292.4883           270.7071
        5.790000           22.12669           21.33076           320.0662           268.0107
        5.800001           21.45775           21.29968           349.3254           261.1799
        5.810000           20.64075           21.34074           379.4888           249.3315
        5.820001           19.71692           21.49267           409.3864           231.7026
        5.830000           18.73359           21.77394           437.4093           207.8712
        5.840001           17.73427           22.18528           461.6543           177.9696
        5.850000           16.75459           22.71464           480.1436           142.9111
        5.860001           15.81916           23.34347           491.2353           104.3998
        5.870000           14.94357           24.05075           493.9970           64.79529
        5.880001           14.13505           24.81671           488.4765           26.66690
        5.890000           13.39583           25.62367           475.6949          -7.641563
        5.900001           12.72397           26.45750           457.3772          -36.45156
        5.910000           12.11588           27.30656           435.5718          -58.87997
        5.920001           11.56642           28.16246           412.2512          -74.82201
        5.930000           11.07048           29.01848           389.0905          -84.72551
        5.940001           10.62262           29.87024           367.3366          -89.37607
        5.950000           10.21801           30.71420           347.8498          -89.68365
        5.960001           9.851933           31.54847           331.1484          -86.55354
        5.970000           9.520372           32.37137           317.5242          -80.81227
        5.980000           9.219526           33.18237           307.1051          -73.17863
        5.990000           8.946242           33.98084           299.9386          -64.27427
        6.000000           8.697555           34.76699           296.0250          -54.63549
        6.010000           8.471026           35.54074           295.3558          -44.75277
        6.020000           8.264373           36.30267           297.9232          -35.09118
        6.030000           8.075723           37.05296           303.7203          -26.13549
        6.040000           7.903314           37.79239           312.7326          -18.41033
        6.050000           7.745710           38.52124           324.9019          -12.51959
        6.060000           7.601541           39.24035           340.0932          -9.157537
        6.069999           7.469698           39.95007           358.0161          -9.120328
        6.080000           7.349111           40.65123           378.1627          -13.27739
        6.089999           7.238911           41.34415           399.6992          -22.50105
        6.100000           7.138262           42.02967           421.4215          -37.54250
        6.110001           7.046463           42.70820           441.7202          -58.83089
        6.120000           6.962892           43.38020           458.6909          -86.24834
        6.130001           6.886951           44.04641           470.3803          -118.9598
        6.140000           6.818159           44.70709           475.1299          -155.3305
        6.150001           6.756034           45.36298           471.9702          -193.1357
        6.160000           6.700186           46.01433           460.8634          -229.8912
        6.170001           6.650234           46.66178           442.7000          -263.3655
        6.180000           6.605856           47.30558           419.0656          -291.9123
        6.190001           6.566746           47.94637           391.8376          -314.6825
        6.200000           6.532645           48.58431           362.8513          -331.5403
        6.210001           6.503296           49.22004           333.6233          -342.9044
        6.220000           6.478496           49.85371           305.2871          -349.4992
        6.230000           6.458034           50.48592           278.5634          -352.1750
        6.240000           6.441738           51.11678           253.8642          -351.7646
        6.250000           6.429443           51.74688           231.3430          -349.0134
        6.260000           6.421006           52.37635           211.0064          -344.5491
        6.270000           6.416295           53.00569           192.7473          -338.8749
        6.280000           6.415193           53.63504           176.4176          -332.3871
        6.290000           6.417593           54.26492           161.8343          -325.3851
        6.300000           6.423402           54.89544           148.8204          -318.0963
        6.310000           6.432537           55.52707           137.1968          -310.6847
        6.320000           6.444920           56.15993           126.8057          -303.2731
        6.330000           6.460489           56.79451           117.4970          -295.9445
        6.340000           6.479187           57.43089           109.1436          -288.7610
        6.350000           6.500967           58.06956           101.6279          -281.7602
        6.360000           6.525778           58.71059           94.85150          -274.9698
        6.370000           6.553601           59.35447           88.72449          -268.4030
        6.380000           6.584394           60.00124           83.17239          -262.0694
        6.390000           6.618146           60.65144           78.12695          -255.9689
        6.400000           6.654837           61.30508           73.53196          -250.1017
        6.410000           6.694462           61.96268           69.33564          -244.4612
        6.420000           6.737011           62.62427           65.49549          -239.0429
        6.430000           6.782499           63.29037           61.97197          -233.8374
        6.440000           6.830917           63.96100           58.73281          -228.8381
        6.450000           6.882299           64.63670           55.74762          -224.0347
        6.460001           6.936654           65.31760           52.99120          -219.4191
        6.470000           6.993996           66.00388           50.44131          -214.9834
        6.480001           7.054379           66.69604           48.07711          -210.7175
        6.490000           7.117814           67.39416           45.88176          -206.6143
        6.500001           7.184367           68.09873           43.83885          -202.6646
        6.510000           7.254061           68.80983           41.93517          -198.8619
        6.520001           7.326973           69.52798           40.15771          -195.1976
        6.530000           7.403140           70.25325           38.49604          -191.6660
        6.540001           7.482651           70.98618           36.93974          -188.2593
        6.550000           7.565553           71.72687           35.48047          -184.9723
        6.560001           7.651952           72.47585           34.10983          -181.7980
        6.570000           7.741907           73.23320           32.82111          -178.7320
        6.580001           7.835539           73.99952           31.60747          -175.7680
        6.590000           7.932921           74.77489           30.46349          -172.9018
        6.600001           8.034199           75.55991           29.38352          -170.1281
        6.610000           8.139455           76.35468           28.36317          -167.4432
        6.620001           8.248858           77.15987           27.39777          -164.8421
        6.630000           8.362512           77.97553           26.48368          -162.3218
        6.640001           8.480607           78.80234           25.61703          -159.8777
        6.650000           8.603269           79.64047           24.79484          -157.5072
        6.660000           8.730720           80.49056           24.01384          -155.2062
        6.670000           8.863111           81.35276           23.27156          -152.9724
        6.680000           9.000701           82.22780           22.56524          -150.8021
        6.690000           9.143672           83.11585           21.89282          -148.6933
        6.700000           9.292327           84.01762           21.25199          -146.6425
        6.710000           9.446891           84.93336           20.64100          -144.6482
        6.720000           9.607718           85.86385           20.05788          -142.7072
        6.730000           9.775080           86.80924           19.50119          -140.8180
        6.740000           9.949404           87.77043           18.96925          -138.9779
        6.750000           10.13103           88.74758           18.46082          -137.1855
        6.760000           10.32047           89.74162           17.97450          -135.4383
        6.770000           10.51814           90.75274           17.50925          -133.7352
        6.780000           10.72467           91.78185           17.06387          -132.0737
        6.789999           10.94060           92.82919           16.63751          -130.4530
        6.800000           11.16668           93.89566           16.22914          -128.8710
        6.809999           11.40360           94.98148           15.83809          -127.3267
        6.820000           11.65231           96.08752           15.46349          -125.8183
        6.830001           11.91373           97.21413           15.10476          -124.3448
        6.840000           12.18892           98.36158           14.76136          -122.9053
        6.850001           12.47917           99.53056           14.43268          -121.4981
        6.860000           12.78577           100.7209           14.11838          -120.1228
        6.870001           13.11033           101.9332           13.81796          -118.7781
        6.880000           13.45442           103.1666           13.53120          -117.4635
        6.890001           13.81998           104.4213           13.25771          -116.1781
        6.900000           14.20882           105.6958           12.99732          -114.9219
        6.910001           14.62304           106.9891           12.74965          -113.6941
        6.920000           15.06438           108.2986           12.51443          -112.4950
        6.930001           15.53461           109.6217           12.29105          -111.3245
        6.940000           16.03462           110.9541           12.07887          -110.1832
        6.950001           16.56460           112.2912           11.87669          -109.0712
        6.960000           17.12288           113.6266           11.68304          -107.9893
        6.970001           17.70585           114.9544           11.49574          -106.9374
        6.980000           18.30655           116.2674           11.31229          -105.9155
        6.990001           18.91488           117.5612           11.12975          -104.9224
        7.000000           19.51677           118.8333           10.94535          -103.9562
        7.010001           20.09605           120.0873           10.75675          -103.0139
        7.020000           20.63593           121.3328           10.56261          -102.0921
        7.030001           21.12323           122.5876           10.36269          -101.1867
        7.039999           21.55099           123.8736           10.15804          -100.2944
        7.050001           21.92133           125.2158           9.950414          -99.41237
        7.059999           22.24459           126.6354           9.742210          -98.53898
        7.070001           22.53734           128.1490           9.535682          -97.67313
        7.079999           22.81844           129.7649           9.332920          -96.81515
        7.090001           23.10613           131.4861           9.135391          -95.96519
        7.099999           23.41554           133.3094           8.944170          -95.12426
        7.110000           23.75833           135.2307           8.759742          -94.29292
        7.119999           24.14239           137.2435           8.582347          -93.47212
        7.130000           24.57302           139.3429           8.411861          -92.66218
        7.139999           25.05318           141.5239           8.248103          -91.86379
        7.150000           25.58479           143.7841           8.090697          -91.07697
        7.159999           26.16875           146.1208           7.939330          -90.30209
        7.170000           26.80596           148.5340           7.793571          -89.53897
        7.179999           27.49693           151.0233           7.653102          -88.78782
        7.190000           28.24276           153.5907           7.517535          -88.04830
        7.200001           29.04447           156.2377           7.386565          -87.32034
        7.210000           29.90340           158.9663           7.259923          -86.60392
        7.220001           30.82172           161.7804           7.137297          -85.89862
        7.230000           31.80143           164.6827           7.018486          -85.20439
        7.240001           32.84560           167.6782           6.903231          -84.52082
        7.250000           33.95710           170.7700           6.791372          -83.84792
        7.260001           35.14000           173.9640           6.682688          -83.18520
        7.270000           36.39814           177.2643           6.577053          -82.53268
        7.280001           37.73668           180.6773           6.474282          -81.88989
        7.290000           39.16055           184.2078           6.374270          -81.25683
        7.300001           40.67621           187.8632           6.276857          -80.63309
        7.310000           42.28987           191.6490           6.181962          -80.01864
        7.320001           44.00951           195.5735           6.089443          -79.41309
        7.330000           45.84286           199.6429           5.999235          -78.81640
        7.340001           47.79972           203.8668           5.911212          -78.22823
        7.350000           49.88979           208.2522           5.825318          -77.64851
        7.360001           52.12514           212.8096           5.741443          -77.07693
        7.370000           54.51782           217.5472           5.659539          -76.51348
        7.380001           57.08280           222.4769           5.579510          -75.95777
        7.390000           59.83516           227.6079           5.501314          -75.40987
        7.400001           62.79358           232.9534           5.424862          -74.86935
        7.410000           65.97701           238.5239           5.350119          -74.33630
        7.420001           69.40891           244.3342           5.277003          -73.81036
        7.430000           73.11330           250.3957           5.205487          -73.29156
        7.440001           77.11980           256.7248           5.135494          -72.77959
        7.450000           81.45914           263.3341           5.066999          -72.27444
        7.460001           86.16913           270.2412           4.999934          -71.77584
        7.470000           91.28934           277.4595           4.934276          -71.28381
        7.480000           96.86831           285.0073           4.869961          -70.79807
        7.489999           102.9576           292.8981           4.806971          -70.31863
        7.500000           109.6200           301.1499           4.745245          -69.84521
        7.509999           116.9232           309.7744           4.684767          -69.37786
        7.520000           124.9495           318.7871           4.625482          -68.91631
        7.529999           133.7880           328.1953           4.567376          -68.46058
        7.540000           143.5471           338.0075           4.510396          -68.01043
        7.549999           154.3452           348.2206           4.454529          -67.56588
        7.560000           166.3259           358.8289           4.399727          -67.12671
        7.570001           179.6489           369.8102           4.345971          -66.69286
        7.580000           194.4974           381.1249           4.293240          -66.26431
        7.590001           211.0896           392.7167           4.241490          -65.84083
        7.600000           229.6641           404.4902           4.190713          -65.42245
        7.610001           250.5043           416.3159           4.140866          -65.00896
        7.620000           273.9160           428.0003           4.091942          -64.60038
        7.630001           300.2530           439.2823           4.043901          -64.19652
        7.640000           329.8822           449.7947           3.996737          -63.79739
        7.650001           363.2059           459.0486           3.950412          -63.40282
        7.660000           400.6000           466.3848           3.904920          -63.01283
        7.670001           442.4175           470.9465           3.860226          -62.62721
        7.680000           488.8761           471.6301           3.816324          -62.24601
        7.690001           540.0157           467.0631           3.773182          -61.86906
        7.700000           595.5031           455.6026           3.730795          -61.49637
        7.710001           654.5254           435.3854           3.689131          -61.12777
        7.720000           715.5266           404.4914           3.648186          -60.76330
        7.730000           776.1204           361.1947           3.607930          -60.40277
        7.740000           832.9664           304.4210           3.568362          -60.04625
        7.750000           882.0251           234.1971           3.529449          -59.69353
        7.760000           918.9807           152.1733           3.491193          -59.34467
        7.770000           940.0793           61.70619           3.453563          -58.99951
        7.780000           942.9538          -32.33497           3.416559          -58.65809
        7.790000           927.2706          -124.4684           3.380153          -58.32024
        7.800000           894.8201          -209.5167           3.344347          -57.98600
        7.810000           849.0137          -283.6207           3.309111          -57.65524
        7.820000           794.0950          -344.5901           3.274447          -57.32796
        7.830000           734.2460          -391.9535           3.240332          -57.00402
        7.840000           673.0657          -426.4915           3.206763          -56.68350
        7.850000           613.2240          -449.7885           3.173718          -56.36620
        7.860000           556.5295          -463.7351           3.141196          -56.05220
        7.870000           503.9911          -470.2377           3.109176          -55.74134
        7.880000           456.0805          -471.0134           3.077657          -55.43368
        7.890000           412.8457          -467.5206           3.046619          -55.12905
        7.900000           374.1208          -460.9432           3.016060          -54.82753
        7.910000           339.5777          -452.2093           2.985963          -54.52894
        7.920000           308.8499          -442.0356           2.956327          -54.23336
        7.930000           281.5334          -430.9573           2.927131          -53.94065
        7.940001           257.2510          -419.3759           2.898373          -53.65079
        7.950000           235.6498          -407.5856           2.870048          -53.36382
        7.960001           216.3997          -395.7934           2.842138          -53.07959
        7.970000           199.2190          -384.1516           2.814644          -52.79813
        7.980001           183.8480          -372.7598           2.787548          -52.51934
        7.990000           170.0692          -361.6904           2.760852          -52.24325
        8.000001           157.6842          -350.9835           2.734537          -51.96975
        8.010000           146.5287          -340.6681           2.708607          -51.69888
        8.020000           136.4528          -330.7529           2.683044          -51.43051
        8.030000           127.3326          -321.2437           2.657850          -51.16469
        8.040001           119.0551          -312.1330           2.633010          -50.90132
        8.050000           111.5270          -303.4152           2.608525          -50.64043
        8.060000           104.6626          -295.0753           2.584379          -50.38190
        8.070000           98.39140          -287.1022           2.560575          -50.12579
        8.080001           92.64776          -279.4781           2.537097          -49.87199
        8.090000           87.37793          -272.1896           2.513949          -49.62054
        8.100000           82.53146          -265.2185           2.491116          -49.37133
        8.110000           78.06705          -258.5513           2.468598          -49.12439
        8.120001           73.94540          -252.1703           2.446384          -48.87965
        8.130000           70.13452          -246.0628           2.424475          -48.63712
        8.140000           66.60364          -240.2123           2.402858          -48.39672
        8.150000           63.32766          -234.6072           2.381535          -48.15848
        8.160001           60.28225          -229.2324           2.360493          -47.92231
        8.170000           57.44764          -224.0775           2.339734          -47.68825
        8.180000           54.80436          -219.1291           2.319247          -47.45619
        8.190000           52.33672          -214.3777           2.299034          -47.22620
        8.200001           50.02903          -209.8116           2.279081          -46.99815
        8.209999           47.86872          -205.4222           2.259393          -46.77211
        8.220000           45.84304          -201.1991           2.239957          -46.54798
        8.230000           43.94182          -197.1349           2.220775          -46.32579
        8.240001           42.15467          -193.2202           2.201837          -46.10546
        8.249999           40.47330          -189.4487           2.183144          -45.88704
        8.260000           38.88914          -185.8119           2.164687          -45.67042
        8.270000           37.39542          -182.3042           2.146467          -45.45565
        8.280000           35.98500          -178.9184           2.128474          -45.24265
        8.290001           34.65211          -175.6488           2.110708          -45.03143
        8.300000           33.39143          -172.4904           2.093167          -44.82199
        8.310001           32.19751          -169.4369           2.075841          -44.61425
        8.320000           31.06613          -166.4845           2.058733          -44.40825
        8.330001           29.99270          -163.6273           2.041834          -44.20391
        8.340000           28.97369          -160.8619           2.025146          -44.00128
        8.350000           28.00523          -158.1833           2.008659          -43.80024
        8.360000           27.08432          -155.5885           1.992375          -43.60088
        8.370001           26.20766          -153.0728           1.976287          -43.40308
        8.380000           25.37276          -150.6337           1.960396          -43.20692
        8.390000           24.57677          -148.2670           1.944693          -43.01228
        8.400000           23.81757          -145.9704           1.929181          -42.81923
        8.410001           23.09270          -143.7402           1.913852          -42.62767
        8.420000           22.40037          -141.5742           1.898707          -42.43767
        8.430000           21.73846          -139.4693           1.883739          -42.24912
        8.440000           21.10544          -137.4235           1.868949          -42.06209
        8.450001           20.49945          -135.4338           1.854331          -41.87649
        8.460000           19.91917          -133.4987           1.839886          -41.69237
        8.470000           19.36301          -131.6153           1.825607          -41.50963
        8.480000           18.82982          -129.7822           1.811495          -41.32835
        8.490001           18.31820          -127.9969           1.797545          -41.14841
        8.500000           17.82716          -126.2582           1.783756          -40.96990
        8.510000           17.35546          -124.5637           1.770123          -40.79272
        8.520000           16.90226          -122.9124           1.756648          -40.61691
        8.530001           16.46647          -121.3020           1.743323          -40.44240
        8.540000           16.04735          -119.7318           1.730152          -40.26924
        8.550000           15.64391          -118.1996           1.717126          -40.09736
        8.559999           15.25554          -116.7047           1.704249          -39.92680
        8.570001           14.88135          -115.2452           1.691513          -39.75747
        8.580000           14.52080          -113.8204           1.678922          -39.58943
        8.590000           14.17312          -112.4286           1.666468          -39.42261
        8.599999           13.83781          -111.0691           1.654153          -39.25705
        8.610001           13.51419          -109.7405           1.641972          -39.09268
        8.620000           13.20182          -108.4421           1.629927          -38.92955
        8.630000           12.90010          -107.1725           1.618010          -38.76758
        8.639999           12.60864          -105.9311           1.606226          -38.60681
        8.650001           12.32689          -104.7166           1.594567          -38.44717
        8.660001           12.05447          -103.5285           1.583034          -38.28870
        8.670000           11.79101          -102.3660           1.571626          -38.13140
        8.680001           11.53605          -101.2279           1.560340          -37.97519
        8.690001           11.28931          -100.1139           1.549175          -37.82013
        8.700001           11.05035          -99.02282           1.538127          -37.66615
        8.710000           10.81894          -97.95436           1.527198          -37.51328
        8.720001           10.59467          -96.90748           1.516383          -37.36147
        8.730000           10.37735          -95.88188           1.505683          -37.21076
        8.740001           10.16660          -94.87659           1.495093          -37.06108
        8.750000           9.962240          -93.89132           1.484615          -36.91248
        8.760001           9.763949          -92.92518           1.474245          -36.76488
        8.770000           9.571547          -91.97795           1.463984          -36.61834
        8.780001           9.384747          -91.04875           1.453827          -36.47279
        8.790000           9.203389          -90.13739           1.443776          -36.32827
        8.800000           9.027212          -89.24308           1.433827          -36.18472
        8.809999           8.856073          -88.36563           1.423981          -36.04218
        8.820001           8.689728          -87.50426           1.414233          -35.90059
        8.830000           8.528052          -86.65887           1.404586          -35.75999
        8.840000           8.370823          -85.82870           1.395034          -35.62032
        8.849999           8.217926          -85.01362           1.385581          -35.48162
        8.860001           8.069160          -84.21298           1.376220          -35.34384
        8.870000           7.924418          -83.42665           1.366955          -35.20700
        8.880000           7.783516          -82.65401           1.357781          -35.07106
        8.889999           7.646362          -81.89494           1.348699          -34.93605
        8.900001           7.512780          -81.14885           1.339705          -34.80193
        8.910000           7.382692          -80.41566           1.330802          -34.66870
        8.920000           7.255933          -79.69479           1.321985          -34.53633
        8.929999           7.132432          -78.98616           1.313255          -34.40488
        8.940001           7.012042          -78.28927           1.304609          -34.27425
        8.950000           6.894692          -77.60402           1.296049          -34.14451
        8.960000           6.780245          -76.92991           1.287571          -34.01560
        8.969999           6.668645          -76.26690           1.279175          -33.88754
        8.980000           6.559762          -75.61448           1.270859          -33.76030
        8.990000           6.453541          -74.97267           1.262625          -33.63390
        9.000000           6.349864          -74.34093           1.254467          -33.50830
        9.009999           6.248682          -73.71930           1.246389          -33.38353
        9.020000           6.149887          -73.10727           1.238386          -33.25953
        9.030001           6.053416          -72.50478           1.230459          -33.13633
        9.040000           5.959212          -71.91167           1.222609          -33.01394
        9.050001           5.867178          -71.32754           1.214830          -32.89230
        9.060000           5.777275          -70.75240           1.207126          -32.77146
        9.070001           5.689408          -70.18581           1.199493          -32.65135
        9.080000           5.603546          -69.62782           1.191932          -32.53204
        9.090001           5.519600          -69.07802           1.184440          -32.41344
        9.100000           5.437540          -68.53643           1.177019          -32.29560
        9.110001           5.357285          -68.00267           1.169665          -32.17848
        9.120000           5.278806          -67.47675           1.162380          -32.06212
        9.130001           5.202028          -66.95835           1.155160          -31.94646
        9.140000           5.126925          -66.44746           1.148008          -31.83152
        9.150001           5.053424          -65.94376           1.140920          -31.71729
        9.160000           4.981506          -65.44726           1.133897          -31.60377
        9.170001           4.911101          -64.95766           1.126937          -31.49093
        9.179999           4.842190          -64.47494           1.120040          -31.37880
        9.190001           4.774708          -63.99885           1.113205          -31.26734
        9.200000           4.708639          -63.52935           1.106432          -31.15657
        9.210001           4.643919          -63.06622           1.099718          -31.04645
        9.219999           4.580535          -62.60943           1.093066          -30.93703
        9.230000           4.518432          -62.15871           1.086471          -30.82824
        9.240000           4.457592          -61.71412           1.079937          -30.72011
        9.250000           4.397963          -61.27535           1.073458          -30.61263
        9.259999           4.339532          -60.84245           1.067038          -30.50581
        9.270000           4.282249          -60.41516           1.060673          -30.39960
        9.280000           4.226100          -59.99352           1.054366          -30.29404
        9.290000           4.171041          -59.57728           1.048111          -30.18909
        9.299999           4.117059          -59.16645           1.041913          -30.08478
        9.310000           4.064109          -58.76081           1.035768          -29.98107
        9.320000           4.012182          -58.36040           1.029676          -29.87798
        9.330000           3.961236          -57.96498           1.023636          -29.77548
        9.339999           3.911261          -57.57458           1.017649          -29.67360
        9.350000           3.862217          -57.18900           1.011712          -29.57230
        9.360000           3.814099          -56.80825           1.005827          -29.47159
        9.370000           3.766865          -56.43213           0.999992          -29.37146
        9.379999           3.720511          -56.06068           0.994207          -29.27192
        9.390000           3.674999          -55.69371           0.988470          -29.17295
        9.400001           3.630316          -55.33115           0.982781          -29.07454
        9.410000           3.586450          -54.97303           0.977142          -28.97671
        9.420001           3.543368          -54.61914           0.971549          -28.87943
        9.430000           3.501062          -54.26951           0.966003          -28.78271
        9.440001           3.459502          -53.92395           0.960503          -28.68653
        9.450000           3.418684          -53.58250           0.955050          -28.59092
        9.460001           3.378578          -53.24500           0.949641          -28.49582
        9.470000           3.339178          -52.91146           0.944279          -28.40129
        9.480000           3.300457          -52.58173           0.938959          -28.30726
        9.490000           3.262409          -52.25583           0.933684          -28.21379
        9.500001           3.225010          -51.93360           0.928452          -28.12082
        9.510000           3.188257          -51.61508           0.923263          -28.02838
        9.520000           3.152120          -51.30010           0.918116          -27.93644
        9.530000           3.116600          -50.98873           0.913011          -27.84503
        9.540001           3.081668          -50.68076           0.907948          -27.75412
        9.550000           3.047328          -50.37627           0.902926          -27.66372
        9.560000           3.013550          -50.07510           0.897944          -27.57380
        9.570000           2.980337          -49.77728           0.893003          -27.48440
        9.580001           2.947662          -49.48267           0.888101          -27.39547
        9.590000           2.915527          -49.19130           0.883239          -27.30704
        9.600000           2.883908          -48.90304           0.878415          -27.21908
        9.610000           2.852804          -48.61792           0.873630          -27.13161
        9.620001           2.822196          -48.33582           0.868882          -27.04460
        9.629999           2.792081          -48.05673           0.864173          -26.95808
        9.640000           2.762440          -47.78059           0.859501          -26.87202
        9.650000           2.733272          -47.50737           0.854866          -26.78643
        9.660001           2.704558          -47.23698           0.850267          -26.70129
        9.669999           2.676297          -46.96946           0.845704          -26.61661
        9.680000           2.648472          -46.70465           0.841177          -26.53239
        9.690000           2.621082          -46.44263           0.836685          -26.44862
        9.700000           2.594110          -46.18325           0.832228          -26.36528
        9.709999           2.567554          -45.92656           0.827806          -26.28240
        9.720000           2.541399          -45.67243           0.823418          -26.19995
        9.730000           2.515645          -45.42092           0.819064          -26.11794
        9.740000           2.490275          -45.17190           0.814744          -26.03635
        9.750001           2.465286          -44.92535           0.810456          -25.95520
        9.760000           2.440673          -44.68132           0.806202          -25.87449
        9.770000           2.416424          -44.43965           0.801980          -25.79418
        9.780000           2.392535          -44.20042           0.797790          -25.71430
        9.790001           2.368995          -43.96350           0.793632          -25.63483
        9.800000           2.345803          -43.72892           0.789506          -25.55578
        9.810000           2.322945          -43.49659           0.785411          -25.47714
        9.820000           2.300422          -43.26654           0.781347          -25.39891
        9.830001           2.278220          -43.03866           0.777313          -25.32107
        9.840000           2.256341          -42.81301           0.773310          -25.24364
        9.850000           2.234771          -42.58948           0.769336          -25.16661
        9.860000           2.213510          -42.36810           0.765393          -25.08998
        9.870001           2.192547          -42.14877           0.761478          -25.01373
        9.880000           2.171884          -41.93155           0.757593          -24.93788
        9.890000           2.151506          -41.71633           0.753737          -24.86240
        9.900000           2.131415          -41.50315           0.749909          -24.78732
        9.910001           2.111601          -41.29191           0.746109          -24.71260
        9.920000           2.092063          -41.08265           0.742338          -24.63828
        9.930000           2.072791          -40.87529           0.738594          -24.56432
        9.940000           2.053787          -40.66985           0.734878          -24.49074
        9.950001           2.035038          -40.46626           0.731188          -24.41753
        9.960000           2.016546          -40.26454           0.727526          -24.34468
        9.970000           1.998301          -40.06461           0.723890          -24.27220
        9.980000           1.980305          -39.86651           0.720281          -24.20008
        9.990001           1.962547          -39.67016           0.716697          -24.12831
        10.00000           1.945028          -39.47558           0.713140          -24.05691
# 
# 11/27/2023 at 11:15 yambo @ unimi-XPS-8930 [start]
# 11/27/2023 at 11:15                        [end]
#  
# Timing   [Min/Max/Average]: 02s/02s/02s
#
# .-Input file  yambo.in
# | rim_cut                          # [R] Coulomb potential
# | optics                           # [R] Linear Response optical properties
# | bss                              # [R] BSE solver
# | bse                              # [R][BSE] Bethe Salpeter Equation.
# | tddft                            # [R][K] Use TDDFT kernel
# | ElecTemp= 0.025861         eV    # Electronic Temperature
# | BoseTemp= 0.025861         eV    # Bosonic Temperature
# | FFTGvecs=  9999            RL    # [FFT] Plane-waves
# | BS_nCPU_LinAlg_INV= 1            # [PARALLEL] CPUs for Linear Algebra (if -1 it is automatically set)
# | BS_nCPU_LinAlg_DIAGO= 1          # [PARALLEL] CPUs for Linear Algebra (if -1 it is automatically set)
# | X_Threads= 1                     # [OPENMP/X] Number of threads for response functions
# | DIP_Threads= 1                   # [OPENMP/X] Number of threads for dipoles
# | K_Threads= 1                     # [OPENMP/BSK] Number of threads for response functions
# | RandQpts=0                       # [RIM] Number of random q-points in the BZ
# | RandGvec= 1                RL    # [RIM] Coulomb interaction RS components
# | CUTGeo= "ws xyz"                 # [CUT] Coulomb Cutoff geometry: box/cylinder/sphere/ws/slab X/Y/Z/XY..
# | % CUTBox
# |  0.000000 | 0.000000 | 0.000000 |        # [CUT] [au] Box sides
# | %
# | CUTRadius= 0.000000              # [CUT] [au] Sphere/Cylinder radius
# | CUTCylLen= 0.000000              # [CUT] [au] Cylinder length
# | CUTwsGvec= 0.700000              # [CUT] WS cutoff: number of G to be modified
# | BSKmod= "ALDA"                   # [BSE] IP/Hartree/HF/ALDA/SEX/BSfxc
# | BSEmod= "coupling"               # [BSE] resonant/retarded/coupling
# | Lkind= "full"                    # [BSE,X] bar(default)/full/tilde
# | BSSmod= "hd"                     # [BSS] (h)aydock/(d)iagonalization/(s)lepc/(i)nversion/(t)ddft`
# | DipComputed= "R V P"             # [DIP] [default R P V; extra P2 Spin Orb]
# | BSENGexx= 2003             RL    # [BSK] Exchange components
# | % BSEQptR
# |  1 | 1 |                             # [BSK] Transferred momenta range
# | %
# | % BSEBands
# |  12 | 18 |                           # [BSK] Bands range
# | %
# | % BEnRange
# | -10.00000 | 10.00000 |         eV    # [BSS] Energy range
# | %
# | % BDmRange
# |  0.100000 | 0.100000 |         eV    # [BSS] Damping range
# | %
# | BEnSteps= 2001                   # [BSS] Energy steps
# | % BLongDir
# |  0.100000E-4 |  0.00000    |  0.00000    # [BSS] [cc] Electric Field
# | %
# | BSEprop= "abs jdos"              # [BSS] Can be any among abs/jdos/kerr/magn/dich/photolum/esrt
# | BSEdips= "none"                  # [BSS] Can be "trace/none" or "xy/xz/yz" to define off-diagonal rotation plane
# | #WRbsWF                        # [BSS] Write to disk excitonic the WFs
# | BSHayTrs= 0.100000E-3            # [BSS] Relative [o/o] Haydock threshold. Strict(>0)/Average(<0)
# | BSHayItrMAX= 150                 # [BSS] MaX number of Haydock iterations.
