#                                                           
#   __   __     _        __  __       ____      U  ___  u   
#   \ \ / / U  /"\  U u |" \/ "| u U | __") u    \/"_ \/    
#    \ V /   \/ _ \/   \| |\/| |/   \|  _ \/     | | | |    
#   U_|"|_u  / ___ \    | |  | |     | |_) | .-,_| |_| |    
#     |_|   /_/   \_\   |_|  |_|     |____/   \_)-\___/     
# .-,//|(_   \\    >>  <<,-,,-.     _|| \\_        \\       
#  \_) (__) (__)  (__)  (./  \.)   (__) (__)      (__)      
#                                                           
#                                                           
#        Version 4.3.0 Revision 15168 Hash 7cbb356          
#                  MPI+SLK+OpenMP Build                     
#                http://www.yambo-code.org                  
#
# Joint density of states @ Q(1) [q->0 direction] :0.5774E-5 0.5774E-5 0.5774E-5
#
# - Energies      are  Analyt. E
# - The Green`s function is Retarded -
#
#   BSK|Identifier              :3539
#      |Dimension               :32
#      |Bands                   :7 - 10
#      |Exchange           [res]: yes
#      |Correlation        [res]: yes
#      |Kernel`s coupling       : no
#      |Exchange           [cpl]: no
#      |Correlation        [cpl]: no
#      |W interaction is bare   : yes
#      |ALDA kernel in R-space  : no
#      |RL vectors    [exchange]:51
#      |RL vectors [correlation]:51
#      |E/h energy range    [ev]:-1.000000 - -1.000000
#      |Coupling range     [o/o]: 100.0000 -  100.0000
#    W |Interaction is diagonal : yes
#      |Matrix size             :0
#   RIM|RL components      [col]:0
#      |Random points      [col]:0
#
#    E/ev[1]      jdos-Im[2]   jdos-Re[3]   jdoso-Im[4]  jdoso-Re[5]  jdos`-Im[6]  jdos`-Re[7]
#
    0.000000     0.000000     4.854975     0.000000     1.855033
   0.1001E-1    0.6047E-3     4.855       0.6143E-5     1.855   
   0.2003E-1    0.1210E-2     4.855       0.1229E-4     1.855   
   0.3004E-1    0.1816E-2     4.856       0.1843E-4     1.855   
   0.4005E-1    0.2422E-2     4.857       0.2457E-4     1.855   
   0.5006E-1    0.3031E-2     4.858       0.3072E-4     1.855   
   0.6008E-1    0.3641E-2     4.859       0.3686E-4     1.855   
   0.7009E-1    0.4253E-2     4.861       0.4301E-4     1.855   
   0.8010E-1    0.4868E-2     4.863       0.4915E-4     1.855   
   0.9011E-1    0.5485E-2     4.865       0.5530E-4     1.855   
   0.1001       0.6106E-2     4.867       0.6144E-4     1.855   
   0.1101       0.6731E-2     4.870       0.6759E-4     1.855   
   0.1202       0.7359E-2     4.873       0.7373E-4     1.855   
   0.1302       0.7992E-2     4.876       0.7988E-4     1.855   
   0.1402       0.8630E-2     4.879       0.8603E-4     1.855   
   0.1502       0.9273E-2     4.882       0.9218E-4     1.855   
   0.1602       0.9922E-2     4.886       0.9833E-4     1.855   
   0.1702       0.1058E-1     4.890       0.1045E-3     1.855   
   0.1802       0.1124E-1     4.895       0.1106E-3     1.855   
   0.1902       0.1191E-1     4.899       0.1168E-3     1.855   
   0.2003       0.1258E-1     4.904       0.1229E-3     1.856   
   0.2103       0.1327E-1     4.909       0.1291E-3     1.856   
   0.2203       0.1396E-1     4.915       0.1352E-3     1.856   
   0.2303       0.1466E-1     4.921       0.1414E-3     1.856   
   0.2403       0.1537E-1     4.927       0.1476E-3     1.856   
   0.2503       0.1609E-1     4.933       0.1537E-3     1.856   
   0.2603       0.1682E-1     4.940       0.1599E-3     1.856   
   0.2703       0.1756E-1     4.946       0.1660E-3     1.856   
   0.2804       0.1831E-1     4.954       0.1722E-3     1.856   
   0.2904       0.1908E-1     4.961       0.1784E-3     1.856   
   0.3004       0.1986E-1     4.969       0.1845E-3     1.856   
   0.3104       0.2065E-1     4.977       0.1907E-3     1.856   
   0.3204       0.2146E-1     4.985       0.1969E-3     1.856   
   0.3304       0.2228E-1     4.994       0.2030E-3     1.856   
   0.3404       0.2312E-1     5.003       0.2092E-3     1.856   
   0.3504       0.2397E-1     5.013       0.2154E-3     1.857   
   0.3605       0.2484E-1     5.022       0.2216E-3     1.857   
   0.3705       0.2573E-1     5.032       0.2277E-3     1.857   
   0.3805       0.2664E-1     5.043       0.2339E-3     1.857   
   0.3905       0.2757E-1     5.054       0.2401E-3     1.857   
   0.4005       0.2852E-1     5.065       0.2463E-3     1.857   
   0.4105       0.2949E-1     5.077       0.2525E-3     1.857   
   0.4205       0.3048E-1     5.089       0.2586E-3     1.857   
   0.4305       0.3150E-1     5.101       0.2648E-3     1.857   
   0.4406       0.3254E-1     5.114       0.2710E-3     1.857   
   0.4506       0.3362E-1     5.127       0.2772E-3     1.858   
   0.4606       0.3471E-1     5.141       0.2834E-3     1.858   
   0.4706       0.3584E-1     5.155       0.2896E-3     1.858   
   0.4806       0.3700E-1     5.169       0.2958E-3     1.858   
   0.4906       0.3819E-1     5.184       0.3020E-3     1.858   
   0.5006       0.3942E-1     5.200       0.3082E-3     1.858   
   0.5106       0.4068E-1     5.216       0.3144E-3     1.858   
   0.5207       0.4198E-1     5.232       0.3207E-3     1.858   
   0.5307       0.4331E-1     5.249       0.3269E-3     1.858   
   0.5407       0.4469E-1     5.267       0.3331E-3     1.859   
   0.5507       0.4611E-1     5.285       0.3393E-3     1.859   
   0.5607       0.4758E-1     5.304       0.3455E-3     1.859   
   0.5707       0.4910E-1     5.323       0.3517E-3     1.859   
   0.5807       0.5067E-1     5.343       0.3580E-3     1.859   
   0.5907       0.5229E-1     5.364       0.3642E-3     1.859   
   0.6008       0.5397E-1     5.385       0.3704E-3     1.859   
   0.6108       0.5571E-1     5.407       0.3767E-3     1.860   
   0.6208       0.5751E-1     5.429       0.3829E-3     1.860   
   0.6308       0.5938E-1     5.453       0.3892E-3     1.860   
   0.6408       0.6132E-1     5.477       0.3954E-3     1.860   
   0.6508       0.6333E-1     5.502       0.4017E-3     1.860   
   0.6608       0.6542E-1     5.527       0.4079E-3     1.860   
   0.6708       0.6760E-1     5.554       0.4142E-3     1.861   
   0.6809       0.6987E-1     5.582       0.4204E-3     1.861   
   0.6909       0.7223E-1     5.610       0.4267E-3     1.861   
   0.7009       0.7469E-1     5.639       0.4330E-3     1.861   
   0.7109       0.7726E-1     5.670       0.4392E-3     1.861   
   0.7209       0.7994E-1     5.701       0.4455E-3     1.861   
   0.7309       0.8275E-1     5.733       0.4518E-3     1.862   
   0.7409       0.8568E-1     5.767       0.4581E-3     1.862   
   0.7509       0.8875E-1     5.802       0.4644E-3     1.862   
   0.7610       0.9197E-1     5.838       0.4707E-3     1.862   
   0.7710       0.9535E-1     5.875       0.4769E-3     1.862   
   0.7810       0.9890E-1     5.914       0.4832E-3     1.863   
   0.7910       0.1026        5.954       0.4895E-3     1.863   
   0.8010       0.1066        5.996       0.4959E-3     1.863   
   0.8110       0.1107        6.039       0.5022E-3     1.863   
   0.8210       0.1150        6.084       0.5085E-3     1.863   
   0.8310       0.1197        6.131       0.5148E-3     1.864   
   0.8411       0.1245        6.180       0.5211E-3     1.864   
   0.8511       0.1297        6.230       0.5275E-3     1.864   
   0.8611       0.1351        6.283       0.5338E-3     1.864   
   0.8711       0.1409        6.338       0.5401E-3     1.864   
   0.8811       0.1471        6.395       0.5465E-3     1.865   
   0.8911       0.1537        6.455       0.5528E-3     1.865   
   0.9011       0.1607        6.518       0.5592E-3     1.865   
   0.9111       0.1681        6.583       0.5655E-3     1.865   
   0.9212       0.1761        6.652       0.5719E-3     1.866   
   0.9312       0.1847        6.723       0.5782E-3     1.866   
   0.9412       0.1939        6.799       0.5846E-3     1.866   
   0.9512       0.2038        6.878       0.5910E-3     1.866   
   0.9612       0.2145        6.961       0.5974E-3     1.866   
   0.9712       0.2260        7.048       0.6038E-3     1.867   
   0.9812       0.2385        7.140       0.6101E-3     1.867   
   0.9912       0.2521        7.238       0.6165E-3     1.867   
    1.001       0.2669        7.340       0.6229E-3     1.867   
    1.011       0.2830        7.449       0.6293E-3     1.868   
    1.021       0.3007        7.565       0.6358E-3     1.868   
    1.031       0.3201        7.687       0.6422E-3     1.868   
    1.041       0.3416        7.818       0.6486E-3     1.868   
    1.051       0.3653        7.957       0.6550E-3     1.869   
    1.061       0.3916        8.107       0.6615E-3     1.869   
    1.071       0.4210        8.266       0.6679E-3     1.869   
    1.081       0.4539        8.438       0.6743E-3     1.869   
    1.091       0.4910        8.623       0.6808E-3     1.870   
    1.101       0.5330        8.824       0.6873E-3     1.870   
    1.111       0.5809        9.041       0.6937E-3     1.870   
    1.121       0.6359        9.278       0.7002E-3     1.871   
    1.131       0.6994        9.537       0.7067E-3     1.871   
    1.141       0.7735        9.822       0.7131E-3     1.871   
    1.151       0.8605        10.14       0.7196E-3     1.871   
    1.161       0.9639        10.48       0.7261E-3     1.872   
    1.171        1.088        10.87       0.7326E-3     1.872   
    1.181        1.239        11.31       0.7391E-3     1.872   
    1.191        1.426        11.81       0.7456E-3     1.873   
    1.202        1.660        12.38       0.7521E-3     1.873   
    1.212        1.959        13.03       0.7587E-3     1.873   
    1.222        2.351        13.79       0.7652E-3     1.874   
    1.232        2.877        14.68       0.7717E-3     1.874   
    1.242        3.604        15.73       0.7783E-3     1.874   
    1.252        4.645        16.98       0.7848E-3     1.874   
    1.262        6.193        18.43       0.7914E-3     1.875   
    1.272        8.587        20.02       0.7980E-3     1.875   
    1.282        12.39        21.42       0.8045E-3     1.875   
    1.292        18.27        21.48       0.8111E-3     1.876   
    1.302        25.69        17.50       0.8177E-3     1.876   
    1.312        29.76        7.645       0.8243E-3     1.876   
    1.322        25.78       -2.160       0.8309E-3     1.877   
    1.332        18.51       -6.031       0.8375E-3     1.877   
    1.342        12.79       -5.824       0.8441E-3     1.877   
    1.352        9.171       -4.231       0.8507E-3     1.878   
    1.362        6.981       -2.387       0.8574E-3     1.878   
    1.372        5.672       -.6126       0.8640E-3     1.878   
    1.382        4.923        1.042       0.8706E-3     1.879   
    1.392        4.565        2.607       0.8773E-3     1.879   
    1.402        4.524        4.136       0.8839E-3     1.879   
    1.412        4.791        5.687       0.8906E-3     1.880   
    1.422        5.422        7.312       0.8973E-3     1.880   
    1.432        6.554        9.054       0.9040E-3     1.881   
    1.442        8.460        10.89       0.9107E-3     1.881   
    1.452        11.62        12.62       0.9174E-3     1.881   
    1.462        16.72        13.40       0.9241E-3     1.882   
    1.472        23.82        10.99       0.9308E-3     1.882   
    1.482        29.43        2.618       0.9375E-3     1.882   
    1.492        27.46       -8.137       0.9442E-3     1.883   
    1.502        20.26       -13.77       0.9510E-3     1.883   
    1.512        13.78       -14.48       0.9577E-3     1.884   
    1.522        9.465       -13.27       0.9645E-3     1.884   
    1.532        6.753       -11.67       0.9712E-3     1.884   
    1.542        5.016       -10.17       0.9780E-3     1.885   
    1.552        3.861       -8.862       0.9848E-3     1.885   
    1.562        3.062       -7.757       0.9916E-3     1.885   
    1.572        2.490       -6.822       0.9984E-3     1.886   
    1.582        2.067       -6.025       0.1005E-2     1.886   
    1.592        1.746       -5.341       0.1012E-2     1.887   
    1.602        1.496       -4.747       0.1019E-2     1.887   
    1.612        1.299       -4.228       0.1026E-2     1.888   
    1.622        1.140       -3.769       0.1032E-2     1.888   
    1.632        1.009       -3.362       0.1039E-2     1.888   
    1.642       0.9015       -2.997       0.1046E-2     1.889   
    1.652       0.8110       -2.668       0.1053E-2     1.889   
    1.662       0.7344       -2.369       0.1060E-2     1.890   
    1.672       0.6689       -2.097       0.1067E-2     1.890   
    1.682       0.6125       -1.848       0.1074E-2     1.890   
    1.692       0.5635       -1.618       0.1081E-2     1.891   
    1.702       0.5208       -1.406       0.1088E-2     1.891   
    1.712       0.4832       -1.209       0.1094E-2     1.892   
    1.722       0.4500       -1.026       0.1101E-2     1.892   
    1.732       0.4205       -.8544       0.1108E-2     1.893   
    1.742       0.3942       -.6938       0.1115E-2     1.893   
    1.752       0.3707       -.5429       0.1122E-2     1.894   
    1.762       0.3496       -.4006       0.1129E-2     1.894   
    1.772       0.3305       -.2662       0.1136E-2     1.894   
    1.782       0.3133       -.1387       0.1143E-2     1.895   
    1.792       0.2977       -.1771E-1    0.1150E-2     1.895   
    1.802       0.2836       0.9751E-1    0.1157E-2     1.896   
    1.812       0.2707       0.2075       0.1164E-2     1.896   
    1.822       0.2590       0.3126       0.1171E-2     1.897   
    1.832       0.2482       0.4133       0.1178E-2     1.897   
    1.842       0.2384       0.5100       0.1185E-2     1.898   
    1.852       0.2295       0.6030       0.1193E-2     1.898   
    1.862       0.2213       0.6926       0.1200E-2     1.899   
    1.872       0.2138       0.7792       0.1207E-2     1.899   
    1.882       0.2069       0.8629       0.1214E-2     1.900   
    1.892       0.2007       0.9440       0.1221E-2     1.900   
    1.902       0.1949        1.023       0.1228E-2     1.901   
    1.912       0.1897        1.099       0.1235E-2     1.901   
    1.922       0.1849        1.174       0.1242E-2     1.902   
    1.932       0.1806        1.247       0.1249E-2     1.902   
    1.942       0.1767        1.318       0.1257E-2     1.903   
    1.952       0.1731        1.388       0.1264E-2     1.903   
    1.962       0.1700        1.456       0.1271E-2     1.904   
    1.972       0.1672        1.523       0.1278E-2     1.904   
    1.982       0.1647        1.590       0.1285E-2     1.905   
    1.992       0.1626        1.655       0.1293E-2     1.905   
    2.003       0.1607        1.719       0.1300E-2     1.906   
    2.013       0.1592        1.783       0.1307E-2     1.906   
    2.023       0.1580        1.846       0.1314E-2     1.907   
    2.033       0.1571        1.909       0.1322E-2     1.907   
    2.043       0.1566        1.972       0.1329E-2     1.908   
    2.053       0.1563        2.034       0.1336E-2     1.908   
    2.063       0.1563        2.096       0.1344E-2     1.909   
    2.073       0.1567        2.159       0.1351E-2     1.909   
    2.083       0.1573        2.221       0.1358E-2     1.910   
    2.093       0.1583        2.284       0.1366E-2     1.910   
    2.103       0.1597        2.348       0.1373E-2     1.911   
    2.113       0.1615        2.412       0.1380E-2     1.912   
    2.123       0.1636        2.476       0.1388E-2     1.912   
    2.133       0.1661        2.542       0.1395E-2     1.913   
    2.143       0.1691        2.609       0.1403E-2     1.913   
    2.153       0.1726        2.677       0.1410E-2     1.914   
    2.163       0.1767        2.746       0.1417E-2     1.914   
    2.173       0.1813        2.817       0.1425E-2     1.915   
    2.183       0.1865        2.890       0.1432E-2     1.915   
    2.193       0.1924        2.966       0.1440E-2     1.916   
    2.203       0.1992        3.043       0.1447E-2     1.917   
    2.213       0.2068        3.124       0.1455E-2     1.917   
    2.223       0.2155        3.207       0.1462E-2     1.918   
    2.233       0.2252        3.295       0.1470E-2     1.918   
    2.243       0.2363        3.386       0.1477E-2     1.919   
    2.253       0.2489        3.482       0.1485E-2     1.920   
    2.263       0.2633        3.582       0.1492E-2     1.920   
    2.273       0.2797        3.689       0.1500E-2     1.921   
    2.283       0.2986        3.803       0.1508E-2     1.921   
    2.293       0.3203        3.924       0.1515E-2     1.922   
    2.303       0.3456        4.054       0.1523E-2     1.923   
    2.313       0.3751        4.194       0.1531E-2     1.923   
    2.323       0.4098        4.346       0.1538E-2     1.924   
    2.333       0.4509        4.512       0.1546E-2     1.924   
    2.343       0.5002        4.694       0.1554E-2     1.925   
    2.353       0.5598        4.896       0.1561E-2     1.926   
    2.363       0.6330        5.121       0.1569E-2     1.926   
    2.373       0.7240        5.374       0.1577E-2     1.927   
    2.383       0.8390        5.661       0.1584E-2     1.928   
    2.393       0.9872        5.990       0.1592E-2     1.928   
    2.403        1.182        6.372       0.1600E-2     1.929   
    2.413        1.446        6.818       0.1608E-2     1.929   
    2.423        1.814        7.343       0.1616E-2     1.930   
    2.433        2.344        7.963       0.1623E-2     1.931   
    2.443        3.137        8.682       0.1631E-2     1.931   
    2.453        4.372        9.462       0.1639E-2     1.932   
    2.463        6.338        10.11       0.1647E-2     1.933   
    2.473        9.362        10.01       0.1655E-2     1.933   
    2.483        13.04        7.733       0.1663E-2     1.934   
    2.493        14.75        2.590       0.1671E-2     1.935   
    2.503        12.45       -2.155       0.1679E-2     1.935   
    2.513        8.789       -3.905       0.1686E-2     1.936   
    2.523        5.992       -3.769       0.1694E-2     1.937   
    2.533        4.211       -3.031       0.1702E-2     1.937   
    2.543        3.103       -2.210       0.1710E-2     1.938   
    2.553        2.400       -1.451       0.1718E-2     1.939   
    2.563        1.942       -.7789       0.1726E-2     1.939   
    2.573        1.638       -.1845       0.1734E-2     1.940   
    2.583        1.438       0.3499       0.1743E-2     1.941   
    2.593        1.311       0.8415       0.1751E-2     1.942   
    2.603        1.240        1.306       0.1759E-2     1.942   
    2.613        1.216        1.756       0.1767E-2     1.943   
    2.623        1.237        2.207       0.1775E-2     1.944   
    2.633        1.305        2.669       0.1783E-2     1.944   
    2.643        1.428        3.158       0.1791E-2     1.945   
    2.653        1.624        3.689       0.1799E-2     1.946   
    2.663        1.920        4.279       0.1808E-2     1.947   
    2.673        2.368        4.945       0.1816E-2     1.947   
    2.683        3.056        5.698       0.1824E-2     1.948   
    2.693        4.139        6.516       0.1832E-2     1.949   
    2.703        5.879        7.263       0.1841E-2     1.949   
    2.713        8.621        7.447       0.1849E-2     1.950   
    2.723        12.26        5.824       0.1857E-2     1.951   
    2.733        14.71        1.198       0.1866E-2     1.952   
    2.743        13.19       -4.034       0.1874E-2     1.952   
    2.753        9.524       -6.459       0.1882E-2     1.953   
    2.763        6.446       -6.634       0.1891E-2     1.954   
    2.773        4.435       -6.003       0.1899E-2     1.955   
    2.783        3.172       -5.228       0.1907E-2     1.956   
    2.793        2.361       -4.510       0.1916E-2     1.956   
    2.804        1.820       -3.891       0.1924E-2     1.957   
    2.814        1.446       -3.368       0.1933E-2     1.958   
    2.824        1.177       -2.925       0.1941E-2     1.959   
    2.834       0.9778       -2.547       0.1950E-2     1.959   
    2.844       0.8268       -2.223       0.1958E-2     1.960   
    2.854       0.7094       -1.942       0.1967E-2     1.961   
    2.864       0.6165       -1.695       0.1975E-2     1.962   
    2.874       0.5416       -1.477       0.1984E-2     1.963   
    2.884       0.4803       -1.283       0.1993E-2     1.963   
    2.894       0.4296       -1.109       0.2001E-2     1.964   
    2.904       0.3870       -.9524       0.2010E-2     1.965   
    2.914       0.3509       -.8098       0.2019E-2     1.966   
    2.924       0.3201       -.6796       0.2027E-2     1.967   
    2.934       0.2935       -.5601       0.2036E-2     1.967   
    2.944       0.2704       -.4500       0.2045E-2     1.968   
    2.954       0.2502       -.3480       0.2053E-2     1.969   
    2.964       0.2324       -.2534       0.2062E-2     1.970   
    2.974       0.2166       -.1651       0.2071E-2     1.971   
    2.984       0.2026       -.8255E-1    0.2080E-2     1.971   
    2.994       0.1900       -.5135E-2    0.2089E-2     1.972   
    3.004       0.1788       0.6768E-1    0.2098E-2     1.973   
    3.014       0.1686       0.1363       0.2106E-2     1.974   
    3.024       0.1594       0.2012       0.2115E-2     1.975   
    3.034       0.1510       0.2627       0.2124E-2     1.976   
    3.044       0.1434       0.3210       0.2133E-2     1.977   
    3.054       0.1364       0.3765       0.2142E-2     1.977   
    3.064       0.1300       0.4294       0.2151E-2     1.978   
    3.074       0.1241       0.4798       0.2160E-2     1.979   
    3.084       0.1186       0.5280       0.2169E-2     1.980   
    3.094       0.1136       0.5742       0.2178E-2     1.981   
    3.104       0.1090       0.6185       0.2187E-2     1.982   
    3.114       0.1046       0.6609       0.2196E-2     1.983   
    3.124       0.1006       0.7018       0.2206E-2     1.983   
    3.134       0.9686E-1    0.7411       0.2215E-2     1.984   
    3.144       0.9336E-1    0.7790       0.2224E-2     1.985   
    3.154       0.9009E-1    0.8156       0.2233E-2     1.986   
    3.164       0.8702E-1    0.8508       0.2242E-2     1.987   
    3.174       0.8415E-1    0.8850       0.2251E-2     1.988   
    3.184       0.8144E-1    0.9180       0.2261E-2     1.989   
    3.194       0.7890E-1    0.9500       0.2270E-2     1.990   
    3.204       0.7650E-1    0.9810       0.2279E-2     1.991   
    3.214       0.7424E-1     1.011       0.2289E-2     1.992   
    3.224       0.7211E-1     1.040       0.2298E-2     1.992   
    3.234       0.7009E-1     1.069       0.2307E-2     1.993   
    3.244       0.6818E-1     1.096       0.2317E-2     1.994   
    3.254       0.6637E-1     1.123       0.2326E-2     1.995   
    3.264       0.6465E-1     1.149       0.2336E-2     1.996   
    3.274       0.6302E-1     1.175       0.2345E-2     1.997   
    3.284       0.6147E-1     1.200       0.2355E-2     1.998   
    3.294       0.6000E-1     1.224       0.2364E-2     1.999   
    3.304       0.5859E-1     1.248       0.2374E-2     2.000   
    3.314       0.5726E-1     1.271       0.2383E-2     2.001   
    3.324       0.5598E-1     1.293       0.2393E-2     2.002   
    3.334       0.5477E-1     1.315       0.2403E-2     2.003   
    3.344       0.5361E-1     1.337       0.2412E-2     2.004   
    3.354       0.5250E-1     1.358       0.2422E-2     2.005   
    3.364       0.5144E-1     1.379       0.2432E-2     2.006   
    3.374       0.5043E-1     1.399       0.2441E-2     2.007   
    3.384       0.4946E-1     1.419       0.2451E-2     2.008   
    3.394       0.4853E-1     1.439       0.2461E-2     2.009   
    3.404       0.4764E-1     1.458       0.2471E-2     2.010   
    3.414       0.4678E-1     1.477       0.2481E-2     2.011   
    3.424       0.4597E-1     1.496       0.2490E-2     2.012   
    3.434       0.4518E-1     1.514       0.2500E-2     2.013   
    3.444       0.4443E-1     1.532       0.2510E-2     2.014   
    3.454       0.4370E-1     1.549       0.2520E-2     2.015   
    3.464       0.4301E-1     1.567       0.2530E-2     2.016   
    3.474       0.4234E-1     1.584       0.2540E-2     2.017   
    3.484       0.4170E-1     1.601       0.2550E-2     2.018   
    3.494       0.4108E-1     1.617       0.2560E-2     2.019   
    3.504       0.4049E-1     1.633       0.2570E-2     2.020   
    3.514       0.3991E-1     1.650       0.2580E-2     2.021   
    3.524       0.3936E-1     1.665       0.2591E-2     2.022   
    3.534       0.3883E-1     1.681       0.2601E-2     2.023   
    3.544       0.3832E-1     1.696       0.2611E-2     2.024   
    3.554       0.3783E-1     1.712       0.2621E-2     2.025   
    3.564       0.3736E-1     1.727       0.2631E-2     2.026   
    3.574       0.3690E-1     1.742       0.2642E-2     2.027   
    3.584       0.3646E-1     1.756       0.2652E-2     2.028   
    3.594       0.3603E-1     1.771       0.2662E-2     2.029   
    3.605       0.3562E-1     1.785       0.2673E-2     2.030   
    3.615       0.3523E-1     1.799       0.2683E-2     2.031   
    3.625       0.3485E-1     1.813       0.2694E-2     2.032   
    3.635       0.3448E-1     1.827       0.2704E-2     2.033   
    3.645       0.3413E-1     1.841       0.2715E-2     2.035   
    3.655       0.3378E-1     1.854       0.2725E-2     2.036   
    3.665       0.3345E-1     1.868       0.2736E-2     2.037   
    3.675       0.3314E-1     1.881       0.2746E-2     2.038   
    3.685       0.3283E-1     1.894       0.2757E-2     2.039   
    3.695       0.3253E-1     1.908       0.2767E-2     2.040   
    3.705       0.3225E-1     1.921       0.2778E-2     2.041   
    3.715       0.3197E-1     1.933       0.2789E-2     2.042   
    3.725       0.3171E-1     1.946       0.2800E-2     2.043   
    3.735       0.3145E-1     1.959       0.2810E-2     2.045   
    3.745       0.3120E-1     1.971       0.2821E-2     2.046   
    3.755       0.3096E-1     1.984       0.2832E-2     2.047   
    3.765       0.3073E-1     1.996       0.2843E-2     2.048   
    3.775       0.3051E-1     2.008       0.2854E-2     2.049   
    3.785       0.3030E-1     2.021       0.2865E-2     2.050   
    3.795       0.3009E-1     2.033       0.2876E-2     2.051   
    3.805       0.2990E-1     2.045       0.2887E-2     2.053   
    3.815       0.2971E-1     2.057       0.2898E-2     2.054   
    3.825       0.2952E-1     2.068       0.2909E-2     2.055   
    3.835       0.2935E-1     2.080       0.2920E-2     2.056   
    3.845       0.2918E-1     2.092       0.2931E-2     2.057   
    3.855       0.2901E-1     2.104       0.2942E-2     2.058   
    3.865       0.2886E-1     2.115       0.2953E-2     2.060   
    3.875       0.2871E-1     2.127       0.2965E-2     2.061   
    3.885       0.2856E-1     2.138       0.2976E-2     2.062   
    3.895       0.2842E-1     2.150       0.2987E-2     2.063   
    3.905       0.2829E-1     2.161       0.2999E-2     2.064   
    3.915       0.2816E-1     2.172       0.3010E-2     2.066   
    3.925       0.2804E-1     2.183       0.3021E-2     2.067   
    3.935       0.2793E-1     2.195       0.3033E-2     2.068   
    3.945       0.2782E-1     2.206       0.3044E-2     2.069   
    3.955       0.2771E-1     2.217       0.3056E-2     2.070   
    3.965       0.2761E-1     2.228       0.3067E-2     2.072   
    3.975       0.2751E-1     2.239       0.3079E-2     2.073   
    3.985       0.2742E-1     2.250       0.3091E-2     2.074   
    3.995       0.2734E-1     2.261       0.3102E-2     2.075   
    4.005       0.2726E-1     2.272       0.3114E-2     2.077   
    4.015       0.2718E-1     2.283       0.3126E-2     2.078   
    4.025       0.2711E-1     2.294       0.3138E-2     2.079   
    4.035       0.2704E-1     2.304       0.3149E-2     2.080   
    4.045       0.2698E-1     2.315       0.3161E-2     2.082   
    4.055       0.2692E-1     2.326       0.3173E-2     2.083   
    4.065       0.2686E-1     2.337       0.3185E-2     2.084   
    4.075       0.2681E-1     2.348       0.3197E-2     2.085   
    4.085       0.2676E-1     2.358       0.3209E-2     2.087   
    4.095       0.2672E-1     2.369       0.3221E-2     2.088   
    4.105       0.2668E-1     2.380       0.3233E-2     2.089   
    4.115       0.2665E-1     2.390       0.3245E-2     2.091   
    4.125       0.2662E-1     2.401       0.3258E-2     2.092   
    4.135       0.2659E-1     2.412       0.3270E-2     2.093   
    4.145       0.2656E-1     2.422       0.3282E-2     2.094   
    4.155       0.2654E-1     2.433       0.3294E-2     2.096   
    4.165       0.2653E-1     2.444       0.3307E-2     2.097   
    4.175       0.2652E-1     2.454       0.3319E-2     2.098   
    4.185       0.2651E-1     2.465       0.3331E-2     2.100   
    4.195       0.2650E-1     2.475       0.3344E-2     2.101   
    4.205       0.2650E-1     2.486       0.3356E-2     2.102   
    4.215       0.2650E-1     2.497       0.3369E-2     2.104   
    4.225       0.2650E-1     2.507       0.3382E-2     2.105   
    4.235       0.2651E-1     2.518       0.3394E-2     2.107   
    4.245       0.2652E-1     2.529       0.3407E-2     2.108   
    4.255       0.2654E-1     2.539       0.3420E-2     2.109   
    4.265       0.2655E-1     2.550       0.3432E-2     2.111   
    4.275       0.2658E-1     2.560       0.3445E-2     2.112   
    4.285       0.2660E-1     2.571       0.3458E-2     2.113   
    4.295       0.2663E-1     2.582       0.3471E-2     2.115   
    4.305       0.2666E-1     2.592       0.3484E-2     2.116   
    4.315       0.2669E-1     2.603       0.3497E-2     2.118   
    4.325       0.2673E-1     2.614       0.3510E-2     2.119   
    4.335       0.2677E-1     2.624       0.3523E-2     2.120   
    4.345       0.2682E-1     2.635       0.3536E-2     2.122   
    4.355       0.2686E-1     2.646       0.3549E-2     2.123   
    4.365       0.2691E-1     2.657       0.3562E-2     2.125   
    4.375       0.2697E-1     2.667       0.3575E-2     2.126   
    4.385       0.2702E-1     2.678       0.3589E-2     2.127   
    4.395       0.2708E-1     2.689       0.3602E-2     2.129   
    4.406       0.2715E-1     2.700       0.3615E-2     2.130   
    4.416       0.2721E-1     2.711       0.3629E-2     2.132   
    4.426       0.2728E-1     2.722       0.3642E-2     2.133   
    4.436       0.2736E-1     2.733       0.3656E-2     2.135   
    4.446       0.2743E-1     2.744       0.3669E-2     2.136   
    4.456       0.2751E-1     2.755       0.3683E-2     2.138   
    4.466       0.2759E-1     2.766       0.3697E-2     2.139   
    4.476       0.2768E-1     2.777       0.3710E-2     2.141   
    4.486       0.2777E-1     2.788       0.3724E-2     2.142   
    4.496       0.2786E-1     2.799       0.3738E-2     2.144   
    4.506       0.2796E-1     2.810       0.3752E-2     2.145   
    4.516       0.2806E-1     2.821       0.3766E-2     2.147   
    4.526       0.2816E-1     2.833       0.3780E-2     2.148   
    4.536       0.2827E-1     2.844       0.3794E-2     2.150   
    4.546       0.2837E-1     2.855       0.3808E-2     2.151   
    4.556       0.2849E-1     2.867       0.3822E-2     2.153   
    4.566       0.2860E-1     2.878       0.3836E-2     2.154   
    4.576       0.2872E-1     2.890       0.3850E-2     2.156   
    4.586       0.2885E-1     2.901       0.3865E-2     2.157   
    4.596       0.2897E-1     2.913       0.3879E-2     2.159   
    4.606       0.2910E-1     2.924       0.3893E-2     2.160   
    4.616       0.2924E-1     2.936       0.3908E-2     2.162   
    4.626       0.2937E-1     2.948       0.3922E-2     2.164   
    4.636       0.2952E-1     2.960       0.3937E-2     2.165   
    4.646       0.2966E-1     2.971       0.3951E-2     2.167   
    4.656       0.2981E-1     2.983       0.3966E-2     2.168   
    4.666       0.2996E-1     2.995       0.3981E-2     2.170   
    4.676       0.3012E-1     3.007       0.3995E-2     2.171   
    4.686       0.3028E-1     3.019       0.4010E-2     2.173   
    4.696       0.3044E-1     3.032       0.4025E-2     2.175   
    4.706       0.3061E-1     3.044       0.4040E-2     2.176   
    4.716       0.3078E-1     3.056       0.4055E-2     2.178   
    4.726       0.3096E-1     3.068       0.4070E-2     2.180   
    4.736       0.3114E-1     3.081       0.4085E-2     2.181   
    4.746       0.3133E-1     3.093       0.4100E-2     2.183   
    4.756       0.3152E-1     3.106       0.4116E-2     2.184   
    4.766       0.3171E-1     3.119       0.4131E-2     2.186   
    4.776       0.3191E-1     3.131       0.4146E-2     2.188   
    4.786       0.3211E-1     3.144       0.4162E-2     2.189   
    4.796       0.3232E-1     3.157       0.4177E-2     2.191   
    4.806       0.3253E-1     3.170       0.4192E-2     2.193   
    4.816       0.3275E-1     3.183       0.4208E-2     2.194   
    4.826       0.3297E-1     3.196       0.4224E-2     2.196   
    4.836       0.3320E-1     3.209       0.4239E-2     2.198   
    4.846       0.3343E-1     3.223       0.4255E-2     2.200   
    4.856       0.3367E-1     3.236       0.4271E-2     2.201   
    4.866       0.3391E-1     3.250       0.4287E-2     2.203   
    4.876       0.3416E-1     3.263       0.4303E-2     2.205   
    4.886       0.3442E-1     3.277       0.4319E-2     2.206   
    4.896       0.3468E-1     3.291       0.4335E-2     2.208   
    4.906       0.3494E-1     3.305       0.4351E-2     2.210   
    4.916       0.3521E-1     3.319       0.4367E-2     2.212   
    4.926       0.3549E-1     3.333       0.4383E-2     2.213   
    4.936       0.3577E-1     3.347       0.4399E-2     2.215   
    4.946       0.3606E-1     3.362       0.4416E-2     2.217   
    4.956       0.3636E-1     3.376       0.4432E-2     2.219   
    4.966       0.3666E-1     3.391       0.4449E-2     2.220   
    4.976       0.3697E-1     3.406       0.4465E-2     2.222   
    4.986       0.3729E-1     3.420       0.4482E-2     2.224   
    4.996       0.3761E-1     3.435       0.4499E-2     2.226   
    5.006       0.3795E-1     3.451       0.4515E-2     2.228   
    5.016       0.3828E-1     3.466       0.4532E-2     2.229   
    5.026       0.3863E-1     3.481       0.4549E-2     2.231   
    5.036       0.3899E-1     3.497       0.4566E-2     2.233   
    5.046       0.3935E-1     3.512       0.4583E-2     2.235   
    5.056       0.3972E-1     3.528       0.4600E-2     2.237   
    5.066       0.4010E-1     3.544       0.4617E-2     2.239   
    5.076       0.4049E-1     3.560       0.4635E-2     2.240   
    5.086       0.4088E-1     3.577       0.4652E-2     2.242   
    5.096       0.4129E-1     3.593       0.4669E-2     2.244   
    5.106       0.4171E-1     3.610       0.4687E-2     2.246   
    5.116       0.4213E-1     3.627       0.4704E-2     2.248   
    5.126       0.4257E-1     3.643       0.4722E-2     2.250   
    5.136       0.4301E-1     3.661       0.4740E-2     2.252   
    5.146       0.4347E-1     3.678       0.4757E-2     2.254   
    5.156       0.4394E-1     3.695       0.4775E-2     2.256   
    5.166       0.4442E-1     3.713       0.4793E-2     2.257   
    5.176       0.4491E-1     3.731       0.4811E-2     2.259   
    5.186       0.4541E-1     3.749       0.4829E-2     2.261   
    5.196       0.4593E-1     3.767       0.4847E-2     2.263   
    5.207       0.4646E-1     3.786       0.4865E-2     2.265   
    5.217       0.4700E-1     3.804       0.4884E-2     2.267   
    5.227       0.4756E-1     3.823       0.4902E-2     2.269   
    5.237       0.4813E-1     3.843       0.4921E-2     2.271   
    5.247       0.4871E-1     3.862       0.4939E-2     2.273   
    5.257       0.4931E-1     3.882       0.4958E-2     2.275   
    5.267       0.4993E-1     3.901       0.4976E-2     2.277   
    5.277       0.5056E-1     3.922       0.4995E-2     2.279   
    5.287       0.5122E-1     3.942       0.5014E-2     2.281   
    5.297       0.5188E-1     3.963       0.5033E-2     2.283   
    5.307       0.5257E-1     3.983       0.5052E-2     2.285   
    5.317       0.5328E-1     4.005       0.5071E-2     2.287   
    5.327       0.5400E-1     4.026       0.5090E-2     2.289   
    5.337       0.5475E-1     4.048       0.5109E-2     2.291   
    5.347       0.5552E-1     4.070       0.5128E-2     2.293   
    5.357       0.5631E-1     4.092       0.5148E-2     2.295   
    5.367       0.5712E-1     4.115       0.5167E-2     2.297   
    5.377       0.5796E-1     4.138       0.5187E-2     2.299   
    5.387       0.5882E-1     4.161       0.5207E-2     2.301   
    5.397       0.5972E-1     4.185       0.5226E-2     2.304   
    5.407       0.6063E-1     4.209       0.5246E-2     2.306   
    5.417       0.6158E-1     4.234       0.5266E-2     2.308   
    5.427       0.6256E-1     4.258       0.5286E-2     2.310   
    5.437       0.6357E-1     4.284       0.5306E-2     2.312   
    5.447       0.6461E-1     4.309       0.5326E-2     2.314   
    5.457       0.6568E-1     4.335       0.5347E-2     2.316   
    5.467       0.6680E-1     4.362       0.5367E-2     2.318   
    5.477       0.6795E-1     4.389       0.5387E-2     2.321   
    5.487       0.6914E-1     4.416       0.5408E-2     2.323   
    5.497       0.7037E-1     4.444       0.5429E-2     2.325   
    5.507       0.7165E-1     4.473       0.5449E-2     2.327   
    5.517       0.7297E-1     4.501       0.5470E-2     2.329   
    5.527       0.7434E-1     4.531       0.5491E-2     2.331   
    5.537       0.7576E-1     4.561       0.5512E-2     2.334   
    5.547       0.7724E-1     4.591       0.5533E-2     2.336   
    5.557       0.7878E-1     4.623       0.5554E-2     2.338   
      5.5670       0.0804       4.6545       0.0056       2.3403
      5.5770       0.0820       4.6870       0.0056       2.3426
      5.5870       0.0838       4.7201       0.0056       2.3448
      5.5970       0.0856       4.7539       0.0056       2.3471
      5.6070       0.0874       4.7885       0.0057       2.3493
      5.6170       0.0894       4.8238       0.0057       2.3516
      5.6270       0.0914       4.8600       0.0057       2.3539
      5.6370       0.0936       4.8969       0.0057       2.3562
      5.6471       0.0958       4.9348       0.0057       2.3585
      5.6571       0.0981       4.9735       0.0058       2.3608
      5.6671       0.1006       5.0132       0.0058       2.3631
      5.6771       0.1032       5.0539       0.0058       2.3654
      5.6871       0.1059       5.0957       0.0058       2.3678
      5.6971       0.1087       5.1385       0.0059       2.3701
      5.7071       0.1117       5.1825       0.0059       2.3724
      5.7171       0.1148       5.2277       0.0059       2.3748
      5.7272       0.1181       5.2742       0.0059       2.3772
      5.7372       0.1216       5.3220       0.0060       2.3796
      5.7472       0.1253       5.3713       0.0060       2.3819
      5.7572       0.1292       5.4221       0.0060       2.3843
      5.7672       0.1334       5.4744       0.0060       2.3868
      5.7772       0.1378       5.5285       0.0060       2.3892
      5.7872       0.1424       5.5844       0.0061       2.3916
      5.7972       0.1474       5.6421       0.0061       2.3940
      5.8073       0.1527       5.7020       0.0061       2.3965
      5.8173       0.1584       5.7639       0.0061       2.3989
      5.8273       0.1645       5.8282       0.0062       2.4014
      5.8373       0.1710       5.8950       0.0062       2.4039
      5.8473       0.1780       5.9644       0.0062       2.4064
      5.8573       0.1855       6.0367       0.0062       2.4088
      5.8673       0.1936       6.1121       0.0063       2.4114
      5.8773       0.2024       6.1908       0.0063       2.4139
      5.8874       0.2120       6.2731       0.0063       2.4164
    5.897       0.2223        6.359       0.6337E-2     2.419   
    5.907       0.2336        6.450       0.6362E-2     2.421   
    5.917       0.2460        6.545       0.6387E-2     2.424   
    5.927       0.2595        6.645       0.6413E-2     2.427   
    5.937       0.2744        6.751       0.6438E-2     2.429   
    5.947       0.2909        6.862       0.6463E-2     2.432   
    5.957       0.3092        6.981       0.6489E-2     2.434   
    5.967       0.3295        7.107       0.6515E-2     2.437   
    5.977       0.3522        7.241       0.6541E-2     2.440   
    5.987       0.3777        7.385       0.6567E-2     2.442   
    5.997       0.4064        7.538       0.6593E-2     2.445   
    6.008       0.4391        7.704       0.6619E-2     2.447   
    6.018       0.4763        7.883       0.6646E-2     2.450   
    6.028       0.5191        8.077       0.6672E-2     2.453   
    6.038       0.5686        8.288       0.6699E-2     2.455   
    6.048       0.6264        8.519       0.6726E-2     2.458   
    6.058       0.6942        8.774       0.6753E-2     2.461   
    6.068       0.7748        9.055       0.6780E-2     2.464   
    6.078       0.8713        9.369       0.6807E-2     2.466   
    6.088       0.9885        9.720       0.6834E-2     2.469   
    6.098        1.133        10.12       0.6862E-2     2.472   
    6.108        1.312        10.57       0.6889E-2     2.474   
    6.118        1.540        11.09       0.6917E-2     2.477   
    6.128        1.835        11.69       0.6945E-2     2.480   
    6.138        2.226        12.40       0.6973E-2     2.483   
    6.148        2.756        13.23       0.7001E-2     2.486   
    6.158        3.497        14.22       0.7030E-2     2.488   
    6.168        4.572        15.40       0.7058E-2     2.491   
    6.178        6.188        16.77       0.7087E-2     2.494   
    6.188        8.711        18.24       0.7116E-2     2.497   
    6.198        12.74        19.42       0.7145E-2     2.500   
    6.208        18.90        18.95       0.7174E-2     2.503   
    6.218        26.21        13.94       0.7203E-2     2.506   
    6.228        29.14        3.341       0.7233E-2     2.508   
    6.238        24.15       -5.963       0.7262E-2     2.511   
    6.248        16.84       -9.271       0.7292E-2     2.514   
    6.258        11.35       -9.014       0.7322E-2     2.517   
    6.268        7.847       -7.663       0.7352E-2     2.520   
      6.2778       5.6477      -6.1906       0.0074       2.5231
      6.2879       4.2254      -4.8682       0.0074       2.5260
      6.2979       3.2700      -3.7412       0.0074       2.5290
      6.3079       2.6042      -2.7916       0.0075       2.5320
      6.3179       2.1248      -1.9891       0.0075       2.5350
      6.3279       1.7697      -1.3054       0.0075       2.5380
      6.3379       1.5002      -0.7169       0.0076       2.5410
      6.3479       1.2914      -0.2050       0.0076       2.5441
      6.3579       1.1267       0.2449       0.0076       2.5471
      6.3680       0.9947       0.6442       0.0077       2.5502
      6.3780       0.8875       1.0016       0.0077       2.5532
      6.3880       0.7995       1.3244       0.0077       2.5563
      6.3980       0.7265       1.6181       0.0078       2.5594
      6.4080       0.6654       1.8874       0.0078       2.5625
      6.4180       0.6138       2.1360       0.0078       2.5657
      6.4280       0.5701       2.3668       0.0079       2.5688
      6.4380       0.5327       2.5825       0.0079       2.5720
      6.4481       0.5007       2.7852       0.0079       2.5751
      6.4581       0.4732       2.9766       0.0080       2.5783
      6.4681       0.4494       3.1583       0.0080       2.5815
      6.4781       0.4288       3.3315       0.0080       2.5847
      6.4881       0.4110       3.4974       0.0081       2.5879
      6.4981       0.3956       3.6570       0.0081       2.5912
      6.5081       0.3823       3.8111       0.0081       2.5944
      6.5181       0.3708       3.9604       0.0082       2.5977
      6.5282       0.3610       4.1056       0.0082       2.6009
      6.5382       0.3526       4.2473       0.0082       2.6042
      6.5482       0.3455       4.3860       0.0083       2.6075
      6.5582       0.3396       4.5222       0.0083       2.6108
      6.5682       0.3348       4.6564       0.0083       2.6142
      6.5782       0.3309       4.7889       0.0084       2.6175
      6.5882       0.3280       4.9200       0.0084       2.6209
      6.5982       0.3259       5.0503       0.0084       2.6242
      6.6083       0.3246       5.1798       0.0085       2.6276
      6.6183       0.3241       5.3091       0.0085       2.6310
      6.6283       0.3243       5.4383       0.0086       2.6345
      6.6383       0.3252       5.5678       0.0086       2.6379
      6.6483       0.3268       5.6978       0.0086       2.6413
      6.6583       0.3291       5.8286       0.0087       2.6448
      6.6683       0.3320       5.9604       0.0087       2.6483
      6.6783       0.3356       6.0935       0.0087       2.6518
      6.6884       0.3398       6.2282       0.0088       2.6553
      6.6984       0.3448       6.3647       0.0088       2.6588
      6.7084       0.3504       6.5033       0.0089       2.6623
      6.7184       0.3567       6.6442       0.0089       2.6659
      6.7284       0.3637       6.7878       0.0089       2.6695
      6.7384       0.3715       6.9344       0.0090       2.6730
      6.7484       0.3801       7.0842       0.0090       2.6766
      6.7584       0.3896       7.2376       0.0090       2.6803
      6.7685       0.3999       7.3949       0.0091       2.6839
      6.7785       0.4112       7.5564       0.0091       2.6875
      6.7885       0.4235       7.7226       0.0092       2.6912
      6.7985       0.4369       7.8939       0.0092       2.6949
      6.8085       0.4515       8.0707       0.0093       2.6986
      6.8185       0.4674       8.2536       0.0093       2.7023
      6.8285       0.4848       8.4429       0.0093       2.7060
      6.8385       0.5037       8.6394       0.0094       2.7098
      6.8486       0.5243       8.8437       0.0094       2.7135
      6.8586       0.5469       9.0564       0.0095       2.7173
      6.8686       0.5717       9.2784       0.0095       2.7211
      6.8786       0.5988       9.5106       0.0095       2.7249
    6.889       0.6288        9.754       0.9587E-2     2.729   
    6.899       0.6619        10.01       0.9631E-2     2.733   
    6.909       0.6985        10.28       0.9674E-2     2.736   
    6.919       0.7394        10.56       0.9718E-2     2.740   
    6.929       0.7851        10.86       0.9762E-2     2.744   
    6.939       0.8364        11.18       0.9806E-2     2.748   
    6.949       0.8945        11.52       0.9851E-2     2.752   
    6.959       0.9607        11.89       0.9896E-2     2.756   
    6.969        1.037        12.28       0.9941E-2     2.760   
    6.979        1.125        12.70       0.9986E-2     2.764   
    6.989        1.228        13.15       0.1003E-1     2.768   
    6.999        1.350        13.65       0.1008E-1     2.772   
    7.009        1.498        14.19       0.1012E-1     2.776   
    7.019        1.678        14.80       0.1017E-1     2.780   
    7.029        1.903        15.46       0.1022E-1     2.784   
    7.039        2.191        16.21       0.1026E-1     2.788   
    7.049        2.570        17.06       0.1031E-1     2.792   
    7.059        3.086        18.02       0.1036E-1     2.797   
    7.069        3.817        19.12       0.1041E-1     2.801   
    7.079        4.897        20.34       0.1046E-1     2.805   
    7.089        6.556        21.60       0.1051E-1     2.809   
    7.099        9.137        22.58       0.1055E-1     2.813   
    7.109        12.80        22.27       0.1060E-1     2.818   
    7.119        16.20        19.18       0.1065E-1     2.822   
    7.129        16.17        14.41       0.1070E-1     2.826   
    7.139        13.06        11.91       0.1075E-1     2.830   
    7.149        10.05        12.22       0.1081E-1     2.835   
    7.159        8.209        13.84       0.1086E-1     2.839   
    7.169        7.342        15.90       0.1091E-1     2.843   
    7.179        7.171        18.15       0.1096E-1     2.848   
    7.189        7.556        20.56       0.1101E-1     2.852   
    7.199        8.494        23.18       0.1106E-1     2.857   
    7.209        10.11        26.08       0.1112E-1     2.861   
    7.219        12.69        29.28       0.1117E-1     2.866   
    7.229        16.77        32.63       0.1122E-1     2.870   
    7.239        23.06        35.43       0.1128E-1     2.875   
    7.249        31.70        35.97       0.1133E-1     2.879   
    7.259        40.91        32.81       0.1139E-1     2.884   
    7.269        49.48        26.70       0.1144E-1     2.888   
    7.279        56.84        16.20       0.1150E-1     2.893   
    7.289        58.72        1.950       0.1155E-1     2.897   
    7.299        53.66       -12.01       0.1161E-1     2.902   
    7.309        42.38       -21.02       0.1167E-1     2.907   
    7.319        30.57       -22.43       0.1172E-1     2.911   
    7.329        22.21       -19.59       0.1178E-1     2.916   
    7.339        17.13       -15.53       0.1184E-1     2.921   
    7.349        14.32       -11.42       0.1190E-1     2.926   
    7.359        13.14       -7.562       0.1195E-1     2.930   
    7.369        13.39       -4.090       0.1201E-1     2.935   
    7.379        15.15       -1.392       0.1207E-1     2.940   
    7.389        18.26       -.5783       0.1213E-1     2.945   
    7.399        20.72       -2.867       0.1219E-1     2.950   
    7.409        19.60       -6.074       0.1225E-1     2.955   
    7.419        16.49       -6.542       0.1232E-1     2.959   
    7.429        14.38       -4.572       0.1238E-1     2.964   
    7.439        14.12       -1.645       0.1244E-1     2.969   
    7.449        15.88        1.335       0.1250E-1     2.974   
    7.459        20.04        3.365       0.1256E-1     2.979   
    7.469        26.53        2.219       0.1263E-1     2.984   
    7.479        31.97       -4.935       0.1269E-1     2.990   
    7.489        30.09       -14.86       0.1276E-1     2.995   
    7.499        22.81       -19.89       0.1282E-1     3.000   
    7.509        16.17       -19.91       0.1289E-1     3.005   
    7.519        11.76       -17.92       0.1295E-1     3.010   
    7.529        9.055       -15.51       0.1302E-1     3.015   
    7.539        7.408       -13.15       0.1309E-1     3.020   
     7.54944      6.43708    -10.94983      0.01315      3.02575
     7.55945      5.93410     -8.87384      0.01322      3.03102
     7.56946      5.80659     -6.86853      0.01329      3.03633
     7.57947      6.04272     -4.87021      0.01336      3.04167
     7.58949      6.70782     -2.82032      0.01343      3.04703
     7.59950      7.96917     -0.68384      0.01350      3.05242
     7.60951     10.15374      1.48528      0.01357      3.05784
    7.620        13.82        3.339       0.1364E-1     3.063   
    7.630        19.62        3.669       0.1371E-1     3.069   
    7.640        26.85       -.3039       0.1378E-1     3.074   
    7.650        30.34       -10.13       0.1385E-1     3.080   
    7.660        25.81       -19.47       0.1393E-1     3.085   
    7.670        18.37       -22.89       0.1400E-1     3.091   
    7.680        12.60       -22.48       0.1408E-1     3.097   
    7.690        8.882       -20.85       0.1415E-1     3.102   
    7.700        6.531       -19.07       0.1423E-1     3.108   
    7.710        5.001       -17.46       0.1430E-1     3.114   
    7.720        3.964       -16.06       0.1438E-1     3.119   
    7.730        3.234       -14.86       0.1446E-1     3.125   
     7.73967      2.70220    -13.82567      0.01453      3.13095
     7.74969      2.30219    -12.92594      0.01461      3.13678
     7.75970      1.99369    -12.13665      0.01469      3.14265
     7.76971      1.75037    -11.43756      0.01477      3.14855
     7.77972      1.55477    -10.81295      0.01485      3.15448
     7.78974      1.39487    -10.25024      0.01493      3.16044
     7.79975      1.26228     -9.73964      0.01501      3.16644
     7.80976      1.15092     -9.27316      0.01510      3.17247
     7.81978      1.05638     -8.84450      0.01518      3.17853
     7.82979      0.97533     -8.44840      0.01526      3.18463
     7.83980      0.90524     -8.08057      0.01535      3.19076
     7.84981      0.84419     -7.73750      0.01543      3.19692
     7.85983      0.79065     -7.41616      0.01552      3.20312
     7.86984      0.74343     -7.11407      0.01561      3.20935
     7.87985      0.70157     -6.82904      0.01569      3.21562
     7.88986      0.66430     -6.55926      0.01578      3.22192
     7.89988      0.63099     -6.30309      0.01587      3.22826
     7.90989      0.60113     -6.05919      0.01596      3.23463
     7.91990      0.57428     -5.82627      0.01605      3.24104
     7.92991      0.55010     -5.60332      0.01614      3.24749
     7.93993      0.52829     -5.38931      0.01623      3.25397
     7.94994      0.50860     -5.18344      0.01633      3.26049
     7.95995      0.49082     -4.98490      0.01642      3.26705
     7.96996      0.47479     -4.79298      0.01651      3.27364
     7.97997      0.46036     -4.60705      0.01661      3.28027
     7.98999      0.44739     -4.42651      0.01670      3.28694
     8.00000      0.43580     -4.25081      0.01680      3.29365
# 
# 11/27/2017 at 16:31 YAMBO @ narro [start]
# 11/27/2017 at 16:31               [end]
#
# .-Input file : yambo.in
# | optics                         # [R OPT] Optics
# | bse                            # [R BSE] Bethe Salpeter Equation.
# | bsk                            # [R BSK] Bethe Salpeter Equation kernel
# | bss                            # [R BSS] Bethe Salpeter Equation solver
# | BoseTemp= 0.000000     eV      # Bosonic Temperature
# | FFTGvecs=  3473        RL      # [FFT] Plane-waves
# | X_Threads= 1                   # [OPENMP/X] Number of threads for response functions
# | DIP_Threads= 1                 # [OPENMP/X] Number of threads for dipoles
# | K_Threads= 1                   # [OPENMP/BSK] Number of threads for response functions
# | BSEmod= "retarded"             # [BSE] resonant/retarded/coupling
# | BSKmod= "HF"                   # [BSE] IP/Hartree/HF/ALDA/SEX/BSfxc
# | BSSmod= "d"                    # [BSS] (h)aydock/(d)iagonalization/(i)nversion/(t)ddft`
# | BSENGexx=  51          RL      # [BSK] Exchange components
# | BSENGBlk=  51          RL      # [BSK] Screened interaction block size
# | % KfnQP_E
# |  6.500000 | 1.000000 | 1.000000 |        # [EXTQP BSK BSS] E parameters  (c/v) eV|adim|adim
# | %
# | % BEnRange
# |  0.000000 | 8.000000 | eV      # [BSS] Energy range
# | %
# | % BDmRange
# |   0.02500 |  0.02500 | eV      # [BSS] Damping range
# | %
# | BEnSteps=  800                 # [BSS] Energy steps
# | % BLongDir
# | 0.5774E-5 |0.5774E-5 |0.5774E-5 |        # [BSS] [cc] Electric Field
# | %
# | % BSEBands
# |   7 | 10 |                     # [BSK] Bands range
# | %
