#                                                           
# :::   :::   :::     ::::    ::::  :::::::::   ::::::::    
# :+:   :+: :+: :+:   +:+:+: :+:+:+ :+:    :+: :+:    :+:   
#  +:+ +:+ +:+   +:+  +:+ +:+:+ +:+ +:+    +:+ +:+    +:+   
#   +#++: +#++:++#++: +#+  +:+  +#+ +#++:++#+  +#+    +:+   
#    +#+  +#+     +#+ +#+       +#+ +#+    +#+ +#+    +#+   
#    #+#  #+#     #+# #+#       #+# #+#    #+# #+#    #+#   
#    ###  ###     ### ###       ### #########   ########    
#                                                           
#               Version 3.4.2 Revision 5108                 
#                http://www.yambo-code.org                  
#
# Absorption @ Q(1) [q->0 direction] :0.5774E-5 0.5774E-5 0.5774E-5
#
#
# - Energies      are GoWo Plasmon Pole appox.
# - Wavefunctions are Teter 93(XC)
#
# - The Green`s function is causal -
# - Using Shifted Grids -
# - [r,Vnl] *is* included -
#
#   BSK|Identifier              :8424
#      |Dimension               :32
#      |Bands                   :7 - 10
#      |Exchange           [res]: yes
#      |Correlation        [res]: yes
#      |Kernel`s coupling       : no
#      |Exchange           [cpl]: no
#      |W interaction is bare   : no
#      |Correlation        [cpl]: no
#      |ALDA kernel in R-space  : no
#      |RL vectors    [exchange]:51
#      |RL vectors [correlation]:51
#      |E/h energy range    [ev]:-1.000000 - -1.000000
#      |Coupling range     [o/o]: 100.0000 -  100.0000
#    W |Interaction is diagonal : no
#      |Matrix size             :51
#      |Bands                   :1 - 60
#      |e/h energy range    [ev]:-1.000000 - -1.000000
#      |Poles              [o/o]: 100.0000
#      |Rl vectors in the sum   :3473
#      |[r,Vnl] included        : yes
#      |Field direction         :0.1000E-4  0.000000  0.000000
#      |Coulomb Cutoff        :none
#      |xc-Kernel               :none
#   RIM|RL components      [col]:0
#      |Random points      [col]:0
#
#  E/ev[1]    eps /Im[2] eps /Re[3] eps0/Im[4] eps0/Re[5]
#
   4.00000    0.46524   18.02857    0.02573    6.12331
   4.01003    0.47785   18.21717    0.02590    6.13366
   4.02005    0.49104   18.41091    0.02607    6.14408
   4.03008    0.50486   18.61003    0.02624    6.15456
   4.04010    0.51937   18.81476    0.02641    6.16512
   4.05013    0.53461   19.02542    0.02659    6.17575
   4.06015    0.55065   19.24230    0.02677    6.18644
   4.07018    0.56756   19.46571    0.02695    6.19721
   4.08020    0.58541   19.69602    0.02713    6.20805
   4.09023    0.60432   19.93362    0.02731    6.21896
   4.10025    0.62436   20.17892    0.02749    6.22995
   4.11028    0.64569   20.43240    0.02768    6.24101
   4.12030    0.66842   20.69457    0.02786    6.25214
   4.13033    0.69274   20.96602    0.02805    6.26335
   4.14035    0.71885   21.24740    0.02824    6.27464
   4.15038    0.74697   21.53941    0.02843    6.28600
   4.16040    0.77742   21.84289    0.02863    6.29744
   4.17043    0.81053   22.15876    0.02882    6.30896
   4.18045    0.84674   22.48809    0.02902    6.32055
   4.19048    0.88660   22.83214    0.02922    6.33223
   4.20050    0.93079   23.19234    0.02942    6.34398
   4.21053    0.98019   23.57042    0.02962    6.35582
   4.22055    1.03595   23.96841    0.02983    6.36774
   4.23058    1.09960   24.38875    0.03003    6.37974
   4.24060    1.17316   24.83443    0.03024    6.39182
   4.25063    1.25946   25.30911    0.03045    6.40399
   4.26065    1.36244   25.81733    0.03066    6.41624
   4.27068    1.48781   26.36486    0.03088    6.42857
   4.28070    1.64402   26.95893    0.03109    6.44100
   4.29073    1.84396   27.60859    0.03131    6.45351
   4.30075    2.10800   28.32504    0.03153    6.46610
   4.31078    2.46949   29.12095    0.03175    6.47879
   4.32080    2.98502   30.00728    0.03198    6.49157
   4.33083    3.75319   30.98094    0.03220    6.50443
   4.34085    4.94489   31.98343    0.03243    6.51739
  4.351      6.821      32.77     0.3266E-1   6.530   
   4.36090    9.54916   32.63564    0.03289    6.54358
   4.37093   12.24849   30.35950    0.03313    6.55682
   4.38095   12.41916   26.45124    0.03337    6.57015
   4.39098    9.91412   24.04424    0.03361    6.58357
   4.40100    7.24511   23.87982    0.03385    6.59709
   4.41103    5.41914   24.76232    0.03409    6.61071
   4.42105    4.29920   25.92983    0.03434    6.62443
   4.43108    3.62062   27.12100    0.03459    6.63825
   4.44110    3.20681   28.27142    0.03484    6.65217
   4.45113    2.95590   29.37735    0.03509    6.66619
   4.46115    2.80985   30.45094    0.03535    6.68031
   4.47118    2.73486   31.50675    0.03561    6.69454
   4.48120    2.71069   32.55826    0.03587    6.70887
   4.49123    2.72497   33.61716    0.03614    6.72330
   4.50125    2.77003   34.69373    0.03640    6.73784
   4.51128    2.84116   35.79705    0.03667    6.75249
   4.52130    2.93560   36.93550    0.03695    6.76725
  4.531      3.052      38.12     0.3722E-1   6.782   
  4.541      3.190      39.35     0.3750E-1   6.797   
  4.551      3.349      40.64     0.3778E-1   6.812   
  4.561      3.532      42.00     0.3807E-1   6.827   
  4.571      3.739      43.44     0.3835E-1   6.843   
  4.581      3.973      44.96     0.3864E-1   6.858   
  4.591      4.237      46.58     0.3894E-1   6.874   
  4.602      4.535      48.30     0.3923E-1   6.889   
  4.612      4.871      50.15     0.3953E-1   6.905   
  4.622      5.251      52.14     0.3983E-1   6.921   
  4.632      5.682      54.28     0.4014E-1   6.937   
  4.642      6.173      56.60     0.4045E-1   6.953   
  4.652      6.735      59.12     0.4076E-1   6.970   
  4.662      7.381      61.87     0.4108E-1   6.986   
  4.672      8.128      64.89     0.4140E-1   7.002   
  4.682      8.998      68.20     0.4172E-1   7.019   
  4.692      10.02      71.86     0.4204E-1   7.036   
  4.702      11.22      75.94     0.4237E-1   7.053   
  4.712      12.66      80.49     0.4271E-1   7.070   
  4.722      14.40      85.62     0.4304E-1   7.087   
  4.732      16.52      91.43     0.4338E-1   7.104   
  4.742      19.14      98.06     0.4373E-1   7.122   
  4.752      22.43      105.7     0.4408E-1   7.139   
  4.762      26.64      114.5     0.4443E-1   7.157   
  4.772      32.12      124.9     0.4479E-1   7.175   
  4.782      39.44      137.2     0.4515E-1   7.193   
  4.792      49.46      151.7     0.4551E-1   7.211   
  4.802      63.65      169.2     0.4588E-1   7.230   
  4.812      84.43      190.0     0.4625E-1   7.248   
  4.822      116.1      213.9     0.4663E-1   7.267   
  4.832      166.0      238.5     0.4701E-1   7.285   
  4.842      245.6      253.4     0.4740E-1   7.304   
  4.852      362.4      227.6     0.4779E-1   7.323   
  4.862      479.2      108.2     0.4818E-1   7.343   
  4.872      486.9     -85.30     0.4858E-1   7.362   
  4.882      375.9     -216.1     0.4898E-1   7.382   
  4.892      256.0     -249.0     0.4939E-1   7.401   
  4.902      172.6     -236.4     0.4981E-1   7.421   
  4.912      120.2     -212.2     0.5023E-1   7.441   
  4.922      87.10     -188.0     0.5065E-1   7.462   
  4.932      65.43     -166.8     0.5108E-1   7.482   
  4.942      50.71     -149.0     0.5151E-1   7.503   
  4.952      40.33     -134.2     0.5195E-1   7.523   
  4.962      32.79     -121.7     0.5240E-1   7.544   
  4.972      27.16     -111.2     0.5285E-1   7.565   
  4.982      22.87     -102.2     0.5330E-1   7.587   
  4.992      19.51     -94.50     0.5376E-1   7.608   
  5.003      16.82     -87.83     0.5423E-1   7.630   
  5.013      14.63     -81.98     0.5470E-1   7.652   
  5.023      12.83     -76.81     0.5518E-1   7.674   
  5.033      11.34     -72.21     0.5567E-1   7.696   
  5.043      10.10     -68.11     0.5616E-1   7.718   
  5.053      9.052     -64.42     0.5666E-1   7.741   
  5.063      8.159     -61.09     0.5716E-1   7.764   
  5.073      7.391     -58.08     0.5767E-1   7.787   
   5.08271    6.72732  -55.32764    0.05819    7.80984
   5.09273    6.14874  -52.81464    0.05871    7.83327
   5.10276    5.64161  -50.50810    0.05924    7.85691
   5.11278    5.19467  -48.38388    0.05978    7.88077
   5.12281    4.79876  -46.42139    0.06032    7.90484
   5.13283    4.44642  -44.60296    0.06087    7.92914
   5.14286    4.13149  -42.91341    0.06143    7.95365
   5.15288    3.84887  -41.33965    0.06200    7.97839
   5.16291    3.59427  -39.87009    0.06257    8.00336
   5.17293    3.36413  -38.49486    0.06315    8.02857
   5.18296    3.15542  -37.20517    0.06374    8.05400
   5.19298    2.96555  -35.99333    0.06434    8.07968
   5.20301    2.79233  -34.85249    0.06495    8.10559
   5.21303    2.63387  -33.77663    0.06556    8.13175
   5.22306    2.48854  -32.76036    0.06618    8.15816
   5.23308    2.35494  -31.79888    0.06681    8.18482
   5.24311    2.23183  -30.88789    0.06745    8.21173
   5.25313    2.11815  -30.02349    0.06810    8.23890
   5.26316    2.01295  -29.20220    0.06876    8.26633
   5.27318    1.91542  -28.42089    0.06943    8.29403
   5.28321    1.82483  -27.67669    0.07010    8.32200
   5.29323    1.74054  -26.96706    0.07079    8.35024
   5.30326    1.66197  -26.28960    0.07149    8.37876
   5.31328    1.58863  -25.64218    0.07219    8.40756
   5.32331    1.52005  -25.02285    0.07291    8.43664
   5.33333    1.45584  -24.42979    0.07364    8.46602
   5.34336    1.39563  -23.86140    0.07437    8.49569
   5.35338    1.33910  -23.31613    0.07512    8.52565
   5.36341    1.28595  -22.79262    0.07588    8.55591
   5.37343    1.23593  -22.28958    0.07665    8.58649
   5.38346    1.18878  -21.80582    0.07744    8.61737
   5.39348    1.14430  -21.34027    0.07823    8.64857
   5.40351    1.10229  -20.89189    0.07904    8.68009
   5.41353    1.06257  -20.45974    0.07985    8.71194
   5.42356    1.02497  -20.04296    0.08068    8.74412
   5.43358    0.98936  -19.64073    0.08153    8.77663
   5.44361    0.95558  -19.25233    0.08239    8.80949
   5.45363    0.92352  -18.87700    0.08326    8.84269
   5.46366    0.89307  -18.51411    0.08414    8.87624
   5.47368    0.86411  -18.16305    0.08504    8.91014
   5.48371    0.83656  -17.82324    0.08595    8.94442
   5.49373    0.81032  -17.49414    0.08688    8.97905
   5.50376    0.78531  -17.17524    0.08782    9.01407
   5.51378    0.76146  -16.86609    0.08877    9.04946
   5.52381    0.73869  -16.56621    0.08975    9.08524
   5.53383    0.71695  -16.27522    0.09073    9.12142
   5.54386    0.69617  -15.99270    0.09174    9.15798
   5.55388    0.67629  -15.71829    0.09276    9.19496
   5.56391    0.65728  -15.45162    0.09380    9.23235
   5.57394    0.63907  -15.19238    0.09485    9.27016
   5.58396    0.62162  -14.94025    0.09592    9.30840
   5.59398    0.60489  -14.69495    0.09701    9.34706
   5.60401    0.58885  -14.45618    0.09812    9.38617
   5.61404    0.57345  -14.22368    0.09925    9.42573
   5.62406    0.55866  -13.99721    0.10040    9.46574
   5.63409    0.54446  -13.77652    0.10156    9.50622
   5.64411    0.53080  -13.56139    0.10275    9.54716
   5.65414    0.51767  -13.35161    0.10396    9.58859
   5.66416    0.50504  -13.14697    0.10519    9.63051
   5.67419    0.49288  -12.94729    0.10644    9.67292
   5.68421    0.48118  -12.75237    0.10772    9.71584
   5.69424    0.46990  -12.56204    0.10901    9.75928
   5.70426    0.45903  -12.37614    0.11033    9.80323
   5.71429    0.44854  -12.19450    0.11168    9.84773
   5.72431    0.43844  -12.01697    0.11305    9.89276
   5.73434    0.42868  -11.84342    0.11444    9.93835
   5.74436    0.41927  -11.67369    0.11586    9.98450
   5.75439    0.41018  -11.50766    0.11731   10.03123
   5.76441    0.40140  -11.34520    0.11878   10.07854
   5.77444    0.39291  -11.18619    0.12028   10.12645
   5.78446    0.38471  -11.03051    0.12181   10.17497
   5.79449    0.37678  -10.87806    0.12337   10.22410
   5.80451    0.36912  -10.72873    0.12496   10.27387
   5.81454    0.36170  -10.58241    0.12658   10.32428
   5.82456    0.35452  -10.43901    0.12824   10.37534
   5.83459    0.34757  -10.29843    0.12992   10.42707
   5.84461    0.34085  -10.16060    0.13164   10.47949
   5.85464    0.33433  -10.02540    0.13340   10.53259
   5.86466    0.32802   -9.89277    0.13518   10.58642
   5.87469    0.32191   -9.76263    0.13701   10.64096
   5.88471    0.31598   -9.63490    0.13887   10.69624
   5.89474    0.31024   -9.50949    0.14077   10.75228
   5.90476    0.30467   -9.38635    0.14272   10.80908
   5.91479    0.29928   -9.26540    0.14470   10.86667
   5.92481    0.29404   -9.14659    0.14672   10.92507
   5.93484    0.28896   -9.02983    0.14879   10.98428
   5.94486    0.28403   -8.91508    0.15090   11.04433
   5.95489    0.27925   -8.80227    0.15306   11.10523
   5.96491    0.27461   -8.69134    0.15526   11.16701
   5.97494    0.27010   -8.58224    0.15751   11.22968
   5.98496    0.26573   -8.47492    0.15981   11.29325
   5.99499    0.26149   -8.36932    0.16217   11.35777
   6.00501    0.25737   -8.26539    0.16457   11.42323
   6.01504    0.25337   -8.16309    0.16704   11.48967
   6.02506    0.24949   -8.06237    0.16955   11.55711
   6.03509    0.24572   -7.96318    0.17213   11.62556
   6.04511    0.24206   -7.86547    0.17477   11.69507
   6.05514    0.23850   -7.76921    0.17746   11.76563
   6.06516    0.23505   -7.67435    0.18023   11.83730
   6.07519    0.23170   -7.58084    0.18306   11.91008
   6.08521    0.22845   -7.48867    0.18595   11.98400
   6.09524    0.22529   -7.39777    0.18892   12.05910
   6.10526    0.22223   -7.30812    0.19196   12.13540
   6.11529    0.21925   -7.21968    0.19507   12.21294
   6.12531    0.21637   -7.13241    0.19827   12.29174
   6.13534    0.21357   -7.04628    0.20154   12.37183
   6.14536    0.21085   -6.96126    0.20490   12.45325
   6.15539    0.20821   -6.87731    0.20834   12.53603
   6.16541    0.20566   -6.79439    0.21188   12.62020
   6.17544    0.20318   -6.71249    0.21550   12.70581
   6.18546    0.20078   -6.63156    0.21923   12.79289
   6.19549    0.19846   -6.55158    0.22305   12.88148
   6.20551    0.19621   -6.47251    0.22698   12.97162
   6.21554    0.19403   -6.39433    0.23101   13.06335
   6.22556    0.19193   -6.31700    0.23515   13.15672
   6.23559    0.18990   -6.24050    0.23941   13.25177
   6.24561    0.18793   -6.16481    0.24380   13.34855
   6.25564    0.18604   -6.08989    0.24830   13.44710
   6.26566    0.18421   -6.01571    0.25294   13.54749
   6.27569    0.18245   -5.94225    0.25771   13.64975
   6.28571    0.18076   -5.86948    0.26262   13.75396
   6.29574    0.17913   -5.79738    0.26768   13.86015
   6.30576    0.17757   -5.72592    0.27289   13.96840
   6.31579    0.17607   -5.65508    0.27825   14.07876
   6.32581    0.17464   -5.58481    0.28379   14.19130
   6.33584    0.17328   -5.51511    0.28950   14.30609
   6.34586    0.17198   -5.44595    0.29538   14.42320
   6.35589    0.17074   -5.37729    0.30146   14.54271
   6.36591    0.16957   -5.30911    0.30773   14.66468
   6.37594    0.16847   -5.24139    0.31421   14.78920
   6.38596    0.16743   -5.17410    0.32091   14.91635
   6.39599    0.16646   -5.10721    0.32782   15.04622
   6.40602    0.16556   -5.04070    0.33498   15.17891
   6.41604    0.16472   -4.97453    0.34238   15.31450
   6.42607    0.16396   -4.90869    0.35004   15.45311
   6.43609    0.16326   -4.84315    0.35798   15.59482
   6.44612    0.16264   -4.77787    0.36619   15.73976
   6.45614    0.16209   -4.71282    0.37471   15.88805
   6.46617    0.16162   -4.64798    0.38354   16.03980
   6.47619    0.16122   -4.58332    0.39271   16.19514
   6.48622    0.16090   -4.51881    0.40222   16.35422
   6.49624    0.16067   -4.45441    0.41211   16.51716
   6.50627    0.16051   -4.39008    0.42238   16.68413
   6.51629    0.16045   -4.32581    0.43306   16.85529
   6.52632    0.16047   -4.26154    0.44418   17.03079
   6.53634    0.16059   -4.19725    0.45575   17.21082
   6.54637    0.16081   -4.13289    0.46781   17.39557
   6.55639    0.16113   -4.06844    0.48038   17.58522
   6.56642    0.16156   -4.00383    0.49349   17.78000
   6.57644    0.16209   -3.93904    0.50719   17.98012
   6.58647    0.16275   -3.87401    0.52150   18.18582
   6.59649    0.16353   -3.80870    0.53646   18.39735
   6.60652    0.16444   -3.74306    0.55212   18.61500
   6.61654    0.16550   -3.67703    0.56852   18.83902
   6.62657    0.16670   -3.61056    0.58572   19.06973
   6.63659    0.16805   -3.54358    0.60376   19.30746
   6.64662    0.16958   -3.47604    0.62272   19.55256
   6.65664    0.17129   -3.40785    0.64264   19.80540
   6.66667    0.17318   -3.33896    0.66361   20.06636
   6.67669    0.17529   -3.26928    0.68570   20.33589
   6.68672    0.17762   -3.19872    0.70901   20.61444
   6.69674    0.18019   -3.12720    0.73361   20.90252
   6.70677    0.18302   -3.05461    0.75963   21.20065
   6.71679    0.18613   -2.98085    0.78717   21.50941
   6.72682    0.18956   -2.90581    0.81637   21.82943
   6.73684    0.19332   -2.82935    0.84737   22.16137
   6.74687    0.19745   -2.75134    0.88033   22.50600
   6.75689    0.20199   -2.67162    0.91542   22.86411
   6.76692    0.20698   -2.59003    0.95285   23.23658
   6.77694    0.21247   -2.50639    0.99284   23.62434
   6.78697    0.21851   -2.42048    1.03565   24.02850
   6.79699    0.22516   -2.33210    1.08156   24.45016
   6.80702    0.23250   -2.24097    1.13091   24.89064
   6.81704    0.24062   -2.14682    1.18405   25.35131
   6.82707    0.24962   -2.04934    1.24142   25.83374
   6.83709    0.25961   -1.94816    1.30351   26.33967
   6.84712    0.27074   -1.84289    1.37088   26.87103
   6.85714    0.28316   -1.73305    1.44418   27.42996
   6.86717    0.29710   -1.61813    1.52417   28.01893
   6.87719    0.31279   -1.49751    1.61175   28.64065
   6.88722    0.33054   -1.37049    1.70796   29.29821
   6.89724    0.35074   -1.23624    1.81403   29.99515
   6.90727    0.37387   -1.09380    1.93146   30.73548
   6.91729    0.40056   -0.94203    2.06200   31.52382
   6.92732    0.43164   -0.77957    2.20779   32.36543
   6.93734    0.46824   -0.60475    2.37145   33.26660
   6.94737    0.51196   -0.41564    2.55618   34.23450
   6.95739    0.56508   -0.20985    2.76592   35.27758
  6.967     0.6311     0.1533E-1   3.006      36.41   
   6.97744    0.71547    0.26281    3.28157   37.63118
   6.98747    0.82725    0.53464    3.60175   38.96795
   6.99749    0.98104    0.82849    3.97655   40.43343
   7.00752    1.19664    1.12719    4.41959   42.04875
   7.01754    1.47738    1.37954    4.94907   43.83993
   7.02757    1.73771    1.53002    5.58968   45.83934
   7.03759    1.84591    1.68757    6.37554   48.08736
   7.04762    1.88691    2.03630    7.35508   50.63575
   7.05764    2.01749    2.57459    8.59822   53.54984
   7.06767    2.29583    3.25002   10.20904   56.91332
   7.07769    2.75508    4.05108   12.34704   60.83248
   7.08772    3.45972    4.99147   15.26492   65.43863
   7.09774    4.53642    6.08450   19.37736   70.88079
   7.10777    6.21753    7.30001   25.38929   77.28339
   7.11779    8.90357    8.44053   34.53075   84.58823
   7.12782   13.13754    8.78654   48.93078   92.02563
   7.13785   18.86363    6.45824   71.80431   96.49961
    7.1479    23.0221    -0.5711   104.9767    88.9299
    7.1579    21.0419    -8.9360   136.8046    54.6522
    7.1679    15.3703   -13.0210   136.6967     1.5406
    7.1779    10.4828   -13.4071   105.0317   -32.1665
   7.18797    7.29040  -12.40355   72.39079  -39.18266
   7.19800    5.32181  -11.11544   50.12265  -34.19520
   7.20802    4.10600   -9.88354   36.36056  -26.15819
   7.21804    3.35726   -8.77854   27.95035  -18.09938
   7.22807    2.92244   -7.79254   22.85887  -10.75787
   7.23810    2.73063   -6.90423   20.00581   -4.20025
   7.24812    2.76276   -6.10838   18.92440    1.59293
   7.25815    3.01572   -5.43961   19.51221    6.37141
   7.26817    3.44706   -4.93906   21.47645    9.22397
   7.27820    4.07693   -4.58010   22.93033    9.19269
   7.28822    5.07387   -4.56008   21.33162    8.34378
   7.29825    6.17579   -5.43789   18.11783    9.79820
   7.30827    6.35518   -7.18333   15.73184   13.22793
   7.31830    5.22740   -8.56054   14.70718   17.42617
   7.32832    3.77719   -8.88566   14.94461   21.80091
   7.33835    2.69063   -8.59653   16.46523   25.98391
   7.34837    1.98758   -8.13082   19.32814   29.26023
   7.35840    1.53717   -7.66116   22.63093   30.38722
   7.36842    1.23966   -7.23398   23.69638   29.78914
   7.37845    1.03578   -6.85424   22.14080   30.92508
   7.38847    0.89197   -6.51583   20.76427   34.93481
   7.39850    0.78879   -6.21108   20.94360   40.68624
   7.40852    0.71456   -5.93279   22.84285   47.47666
   7.41855    0.66227   -5.67465   26.64512   55.17967
   7.42857    0.62790   -5.43113   32.96610   63.85373
   7.43860    0.60956   -5.19727   43.11272   73.37868
   7.44862    0.60711   -4.96836   59.44423   82.71960
   7.45865    0.62228   -4.73973   85.31140   87.88976
    7.4687     0.6592    -4.5065   121.0972    78.0467
    7.4787     0.7256    -4.2634   149.9765    40.0125
    7.4887     0.8353    -4.0054   142.9765    -8.5639
    7.4987     1.0129    -3.7302   112.2523   -31.6003
   7.50877    1.30184   -3.44580   87.16984  -30.40194
   7.51880    1.77464   -3.19677   75.83907  -19.88481
   7.52882    2.51525   -3.13563   77.59628   -9.10816
   7.53885    3.43822   -3.61458   91.04772   -5.86024
    7.5489     3.8955    -4.8383   108.2084   -20.6271
    7.5589     3.3308    -6.0107   107.7419   -51.3814
   7.56892    2.38744   -6.42959   85.03351  -72.50680
   7.57895    1.65400   -6.35801   60.26025  -75.44138
   7.58897    1.18137   -6.13008   42.75213  -69.67597
   7.59900    0.88281   -5.88306   31.56644  -61.83887
   7.60902    0.68855   -5.65633   24.39385  -54.23382
   7.61905    0.55690   -5.45685   19.65349  -47.40979
   7.62907    0.46405   -5.28255   16.42382  -41.37865
   7.63910    0.39618   -5.12945   14.17449  -36.01487
   7.64912    0.34501   -4.99375   12.59445  -31.17524
   7.65915    0.30538   -4.87227   11.49728  -26.73010
   7.66917    0.27395   -4.76249   10.77047  -22.56733
   7.67920    0.24852   -4.66241   10.34838  -18.58921
   7.68922    0.22758   -4.57046   10.19789  -14.70734
   7.69925    0.21007   -4.48541   10.31181  -10.83741
   7.70927    0.19522   -4.40625   10.70740   -6.89406
   7.71930    0.18249   -4.33219   11.42986   -2.78557
   7.72932    0.17145   -4.26257   12.56157    1.59168
   7.73935    0.16179   -4.19686   14.24030    6.35883
   7.74937    0.15326   -4.13460   16.69302   11.65831
   7.75940    0.14568   -4.07542   20.29852   17.64925
   7.76942    0.13889   -4.01900   25.70448   24.47301
   7.77945    0.13278   -3.96507   34.04424   32.11927
   7.78947    0.12724   -3.91340   47.29279   39.97272
   7.79950    0.12220   -3.86379   68.53162   45.40640
    7.8095     0.1176    -3.8161   100.1181    40.3826
  7.820     0.1133     -3.770      133.1      10.31   
  7.830     0.1094     -3.726      137.9     -41.88   
  7.840     0.1058     -3.683      108.7     -78.88   
   7.84962    0.10247   -3.64120   75.47214  -88.45377
   7.85965    0.09935   -3.60093   52.31837  -84.76434
   7.86967    0.09643   -3.56184   37.86784  -77.68221
   7.87970    0.09371   -3.52387   28.90196  -70.48035
   7.88972    0.09115   -3.48695   23.55972  -64.13935
   7.89975    0.08874   -3.45101   20.63110  -59.36476
   7.90977    0.08647   -3.41600   18.52353  -56.60633
   7.91980    0.08433   -3.38186   15.66065  -54.77352
   7.92982    0.08230   -3.34855   12.50447  -52.36906
   7.93985    0.08038   -3.31602    9.98166  -49.51750
   7.94987    0.07856   -3.28423    8.16691  -46.71520
   7.95990    0.07683   -3.25315    6.85627  -44.16068
   7.96992    0.07519   -3.22274    5.87856  -41.88177
   7.97995    0.07362   -3.19297    5.12442  -39.85353
   7.98997    0.07212   -3.16381    4.52601  -38.04109
   8.00000    0.07070   -3.13523    4.04017  -36.41190
# 
# YAMBO@narro x 001 CPUs * 12/21/2015  10:34 [start]
#                          12/21/2015  10:35 [end]
# 
# Cpu Timing [Min/Max/Average]: 03s/03s/03s
#
# .-Input file : yambo.in
# | optics                       # [R OPT] Optics
# | bse                          # [R BSE] Bethe Salpeter Equation.
# | bsk                          # [R BSK] Bethe Salpeter Equation kernel
# | bss                          # [R BSS] Bethe Salpeter Equation solver
# | em1s                         # [R Xs] Static Inverse Dielectric Matrix
# | BoseTemp= 0.000000     eV    # Bosonic Temperature
# | FFTGvecs=  3473        RL    # [FFT] Plane-waves
# | Chimod= "hartree"            # [X] IP/Hartree/ALDA/LRC/BSfxc
# | BSEmod= "causal"             # [BSE] resonant/causal/coupling
# | BSKmod= "SEX"                # [BSE] IP/Hartree/HF/ALDA/SEX/BSfxc
# | BSSmod= "d"                  # [BSS] (h)aydock/(d)iagonalization/(i)nversion/(t)ddft`
# | BSENGexx=  51          RL    # [BSK] Exchange components
# | BSENGBlk=  51          RL    # [BSK] Screened interaction block size
# | #WehCpl                      # [BSK] eh interaction included also in coupling
# | KfnQPdb= " E < 03_QP/ndb.QP" # [EXTQP BSE] Database
# | % BEnRange
# |  4.000000 | 8.000000 | eV    # [BSS] Energy range
# | %
# | % BDmRange
# |   0.02500 |  0.02500 | eV    # [BSS] Damping range
# | %
# | BEnSteps=  400               # [BSS] Energy steps
# | % BLongDir
# | 0.5774E-5 |0.5774E-5 |0.5774E-5 |        # [BSS] [cc] Electric Field
# | %
# | % BSEBands
# |   7 | 10 |                   # [BSK] Bands range
# | %
# | % BndsRnXs
# |    1 |  60 |                 # [Xs] Polarization function bands
# | %
# | NGsBlkXs=  51          RL    # [Xs] Response block size
# | % LongDrXs
# | 0.1000E-4 | 0.000    | 0.000    |        # [Xs] [cc] Electric Field
# | %
