#                                                           
#  **    **    **     ****     ****  ******     *******     
# //**  **    ****   /**/**   **/** /*////**   **/////**    
#  //****    **//**  /**//** ** /** /*   /**  **     //**   
#   //**    **  //** /** //***  /** /******  /**      /**   
#    /**   **********/**  //*   /** /*//// **/**      /**   
#    /**  /**//////**/**   /    /** /*    /**//**     **    
#    /**  /**     /**/**        /** /*******  //*******     
#    //   //      // //         //  ///////    ///////      
#                                                           
#        Version 4.3.0 Revision 15734 Hash 50fd1d2          
#                  MPI+SLK+OpenMP Build                     
#                http://www.yambo-code.org                  
#
#
# Electron-Hole pairs that contributes to Excitonic State 1 more than 5%
#
#    E    [eV]    Amplitude
#    
      3.5947       0.0061
      3.5988       0.0062
      3.6028       0.0063
      3.6069       0.0064
      3.6110       0.0065
      3.6150       0.0066
      3.6191       0.0067
      3.6231       0.0068
      3.6272       0.0069
      3.6313       0.0070
      3.6353       0.0072
      3.6394       0.0073
      3.6434       0.0074
      3.6475       0.0075
      3.6515       0.0076
      3.6556       0.0078
      3.6597       0.0079
      3.6637       0.0080
      3.6678       0.0082
      3.6718       0.0083
      3.6759       0.0085
      3.6799       0.0086
      3.6840       0.0088
      3.6881       0.0089
      3.6921       0.0091
      3.6962       0.0093
      3.7002       0.0095
      3.7043       0.0096
      3.7083       0.0098
     3.71240      0.01003
     3.71646      0.01023
     3.72052      0.01044
     3.72457      0.01065
     3.72863      0.01087
     3.73269      0.01110
     3.73675      0.01133
     3.74080      0.01158
     3.74486      0.01183
     3.74892      0.01209
     3.75298      0.01236
     3.75703      0.01264
     3.76109      0.01292
     3.76515      0.01322
     3.76921      0.01353
     3.77326      0.01385
     3.77732      0.01418
     3.78138      0.01453
     3.78544      0.01489
     3.78949      0.01526
     3.79355      0.01565
     3.79761      0.01605
     3.80167      0.01647
     3.80572      0.01690
     3.80978      0.01736
     3.81384      0.01783
     3.81789      0.01832
     3.82195      0.01884
     3.82601      0.01937
     3.83007      0.01994
     3.83413      0.02052
     3.83818      0.02114
     3.84224      0.02178
     3.84630      0.02245
     3.85035      0.02315
     3.85441      0.02389
     3.85847      0.02467
     3.86253      0.02548
     3.86658      0.02634
     3.87064      0.02724
     3.87470      0.02819
     3.87876      0.02919
     3.88281      0.03025
     3.88687      0.03136
     3.89093      0.03254
     3.89499      0.03379
     3.89904      0.03511
     3.90310      0.03651
     3.90716      0.03800
     3.91122      0.03958
     3.91527      0.04126
     3.91933      0.04305
     3.92339      0.04496
     3.92745      0.04700
     3.93150      0.04918
     3.93556      0.05152
     3.93962      0.05403
     3.94368      0.05672
     3.94773      0.05962
     3.95179      0.06274
     3.95585      0.06611
     3.95991      0.06976
     3.96396      0.07371
     3.96802      0.07799
     3.97208      0.08266
     3.97614      0.08774
     3.98019      0.09329
     3.98425      0.09937
    3.988308     0.106037
    3.992366     0.113368
    3.996424     0.121449
    4.000481     0.130377
    4.004539     0.140266
    4.008596     0.151245
    4.012653     0.163465
    4.016711     0.177097
    4.020768     0.192341
    4.024826     0.209420
    4.028883     0.228593
    4.032940     0.250143
    4.036998     0.274388
    4.041056     0.301664
    4.045113     0.332311
    4.049170     0.366662
    4.053228     0.404978
    4.057286     0.447403
    4.061343     0.493841
    4.065401     0.543853
    4.069458     0.596466
    4.073515     0.650019
    4.077573     0.702071
    4.081630     0.749411
    4.085688     0.788323
    4.089745     0.815146
    4.093803     0.827023
    4.097860     0.822594
    4.101918     0.802372
    4.105975     0.768607
    4.110033     0.724683
    4.114090     0.674372
    4.118147     0.621173
    4.122205     0.567893
    4.126262     0.516553
    4.130320     0.468407
    4.134377     0.424132
    4.138435     0.383952
    4.142492     0.347828
    4.146550     0.315536
    4.150607     0.286775
    4.154665     0.261200
    4.158722     0.238471
    4.162780     0.218265
    4.166837     0.200276
    4.170895     0.184239
    4.174952     0.169912
    4.179009     0.157086
    4.183067     0.145576
    4.187124     0.135224
    4.191182     0.125889
    4.195240     0.117451
    4.199297     0.109807
    4.203354     0.102864
     4.20741      0.09654
     4.21147      0.09078
     4.21553      0.08551
     4.21958      0.08068
     4.22364      0.07624
     4.22770      0.07216
     4.23176      0.06840
     4.23581      0.06492
     4.23987      0.06171
     4.24393      0.05873
     4.24799      0.05597
     4.25204      0.05340
     4.25610      0.05101
     4.26016      0.04878
     4.26422      0.04670
     4.26827      0.04475
     4.27233      0.04293
     4.27639      0.04122
     4.28045      0.03961
     4.28450      0.03811
     4.28856      0.03669
     4.29262      0.03535
     4.29668      0.03409
     4.30073      0.03291
     4.30479      0.03179
     4.30885      0.03073
     4.31291      0.02972
     4.31696      0.02877
     4.32102      0.02787
     4.32508      0.02702
     4.32914      0.02621
     4.33319      0.02544
     4.33725      0.02471
     4.34131      0.02401
     4.34537      0.02335
     4.34942      0.02272
     4.35348      0.02211
     4.35754      0.02154
     4.36160      0.02099
     4.36565      0.02047
     4.36971      0.01997
     4.37377      0.01949
     4.37783      0.01904
     4.38188      0.01860
     4.38594      0.01818
     4.39000      0.01778
     4.39406      0.01740
     4.39811      0.01703
     4.40217      0.01668
     4.40623      0.01634
     4.41029      0.01602
     4.41434      0.01571
     4.41840      0.01541
     4.42246      0.01513
     4.42652      0.01485
     4.43057      0.01459
     4.43463      0.01433
     4.43869      0.01409
     4.44274      0.01386
     4.44680      0.01363
     4.45086      0.01342
     4.45492      0.01321
     4.45897      0.01301
     4.46303      0.01282
     4.46709      0.01263
     4.47115      0.01246
     4.47520      0.01229
     4.47926      0.01212
     4.48332      0.01197
     4.48738      0.01181
     4.49143      0.01167
     4.49549      0.01153
     4.49955      0.01140
     4.50361      0.01127
     4.50766      0.01114
     4.51172      0.01102
     4.51578      0.01091
     4.51984      0.01080
     4.52389      0.01070
     4.52795      0.01060
     4.53201      0.01050
     4.53607      0.01041
     4.54012      0.01032
     4.54418      0.01024
     4.54824      0.01016
     4.55230      0.01008
     4.55635      0.01001
      4.5604       0.0099
      4.5645       0.0099
      4.5685       0.0098
      4.5726       0.0097
      4.5766       0.0097
      4.5807       0.0096
      4.5848       0.0096
      4.5888       0.0095
      4.5929       0.0095
      4.5969       0.0095
      4.6010       0.0094
      4.6050       0.0094
      4.6091       0.0094
      4.6132       0.0093
      4.6172       0.0093
      4.6213       0.0093
      4.6253       0.0093
      4.6294       0.0092
      4.6334       0.0092
      4.6375       0.0092
      4.6416       0.0092
      4.6456       0.0092
      4.6497       0.0092
      4.6537       0.0092
      4.6578       0.0092
      4.6618       0.0092
      4.6659       0.0092
      4.6700       0.0092
      4.6740       0.0092
      4.6781       0.0092
      4.6821       0.0092
      4.6862       0.0092
      4.6903       0.0092
      4.6943       0.0093
      4.6984       0.0093
      4.7024       0.0093
      4.7065       0.0093
      4.7105       0.0094
      4.7146       0.0094
      4.7187       0.0094
      4.7227       0.0095
      4.7268       0.0095
      4.7308       0.0096
      4.7349       0.0096
      4.7389       0.0097
      4.7430       0.0097
      4.7471       0.0098
      4.7511       0.0098
      4.7552       0.0099
      4.7592       0.0100
     4.76329      0.01002
     4.76734      0.01009
     4.77140      0.01016
     4.77546      0.01023
     4.77951      0.01031
     4.78357      0.01040
     4.78763      0.01048
     4.79169      0.01057
     4.79574      0.01066
     4.79980      0.01076
     4.80386      0.01086
     4.80792      0.01096
     4.81197      0.01107
     4.81603      0.01118
     4.82009      0.01129
     4.82415      0.01141
     4.82820      0.01154
     4.83226      0.01167
     4.83632      0.01180
     4.84038      0.01194
     4.84443      0.01208
     4.84849      0.01223
     4.85255      0.01238
     4.85661      0.01254
     4.86066      0.01270
     4.86472      0.01287
     4.86878      0.01304
     4.87284      0.01323
     4.87689      0.01341
     4.88095      0.01361
     4.88501      0.01381
     4.88907      0.01402
     4.89312      0.01423
     4.89718      0.01445
     4.90124      0.01468
     4.90530      0.01492
     4.90935      0.01517
     4.91341      0.01543
     4.91747      0.01569
     4.92153      0.01597
     4.92558      0.01625
     4.92964      0.01654
     4.93370      0.01685
     4.93776      0.01717
     4.94181      0.01750
     4.94587      0.01784
     4.94993      0.01819
     4.95399      0.01856
     4.95804      0.01894
     4.96210      0.01934
     4.96616      0.01975
     4.97022      0.02018
     4.97427      0.02063
     4.97833      0.02109
     4.98239      0.02158
     4.98645      0.02208
     4.99050      0.02260
     4.99456      0.02315
     4.99862      0.02372
     5.00268      0.02431
     5.00673      0.02493
     5.01079      0.02558
     5.01485      0.02626
     5.01891      0.02696
     5.02296      0.02770
     5.02702      0.02848
     5.03108      0.02929
     5.03514      0.03014
     5.03919      0.03103
     5.04325      0.03197
     5.04731      0.03295
     5.05137      0.03398
     5.05542      0.03507
     5.05948      0.03621
     5.06354      0.03742
     5.06760      0.03868
     5.07165      0.04002
     5.07571      0.04144
     5.07977      0.04293
     5.08383      0.04452
     5.08788      0.04619
     5.09194      0.04797
     5.09600      0.04986
     5.10005      0.05187
     5.10411      0.05400
     5.10817      0.05627
     5.11223      0.05870
     5.11628      0.06129
     5.12034      0.06406
     5.12440      0.06703
     5.12846      0.07021
     5.13251      0.07363
     5.13657      0.07731
     5.14063      0.08128
     5.14469      0.08556
     5.14874      0.09019
     5.15280      0.09520
    5.156859     0.100650
    5.160917     0.106575
    5.164974     0.113033
    5.169032     0.120088
    5.173089     0.127812
    5.177147     0.136287
    5.181204     0.145609
    5.185262     0.155886
    5.189320     0.167245
    5.193377     0.179829
    5.197434     0.193804
    5.201491     0.209365
    5.205549     0.226729
    5.209607     0.246148
    5.213664     0.267910
    5.217722     0.292338
    5.221779     0.319787
    5.225836     0.350647
    5.229894     0.385333
    5.233952     0.424246
    5.238009     0.467744
    5.242066     0.516087
    5.246124     0.569331
    5.250181     0.627182
    5.254239     0.688826
    5.258296     0.752754
    5.262354     0.816543
    5.266411     0.876822
    5.270468     0.929439
    5.274526     0.969934
    5.278584     0.994319
    5.282641     1.000000
    5.286698     0.986454
    5.290756     0.955373
    5.294814     0.910218
    5.298871     0.855355
    5.302928     0.795185
    5.306986     0.733516
    5.311043     0.673250
    5.315101     0.616336
    5.319158     0.563921
    5.323216     0.516561
    5.327273     0.474389
    5.331330     0.437274
    5.335388     0.404942
    5.339446     0.377075
    5.343503     0.353321
    5.347560     0.333352
    5.351618     0.316878
    5.355675     0.303645
    5.359733     0.293432
    5.363791     0.286050
    5.367848     0.281325
    5.371905     0.279069
    5.375963     0.279062
    5.380021     0.281004
    5.384078     0.284476
    5.388135     0.288896
    5.392193     0.293503
    5.396250     0.297373
    5.400308     0.299508
    5.404365     0.298988
    5.408423     0.295152
    5.412480     0.287760
    5.416537     0.277037
    5.420595     0.263598
    5.424653     0.248290
    5.428710     0.231999
    5.432767     0.215506
    5.436825     0.199412
    5.440882     0.184130
    5.444940     0.169899
    5.448997     0.156824
    5.453055     0.144925
    5.457112     0.134159
    5.461169     0.124452
    5.465227     0.115712
    5.469285     0.107847
    5.473342     0.100765
     5.47740      0.09438
     5.48146      0.08861
     5.48551      0.08338
     5.48957      0.07865
     5.49363      0.07434
     5.49769      0.07041
     5.50174      0.06682
     5.50580      0.06353
     5.50986      0.06051
     5.51392      0.05773
     5.51797      0.05517
     5.52203      0.05280
     5.52609      0.05061
     5.53015      0.04858
     5.53420      0.04669
     5.53826      0.04494
     5.54232      0.04330
     5.54638      0.04178
     5.55043      0.04036
     5.55449      0.03903
     5.55855      0.03779
     5.56261      0.03662
     5.56666      0.03553
     5.57072      0.03451
     5.57478      0.03355
     5.57884      0.03265
     5.58289      0.03181
     5.58695      0.03102
     5.59101      0.03028
     5.59507      0.02958
     5.59912      0.02893
     5.60318      0.02833
     5.60724      0.02776
     5.61130      0.02723
     5.61535      0.02674
     5.61941      0.02629
     5.62347      0.02587
     5.62753      0.02548
     5.63158      0.02513
     5.63564      0.02481
     5.63970      0.02452
     5.64376      0.02426
     5.64781      0.02404
     5.65187      0.02385
     5.65593      0.02369
     5.65999      0.02356
     5.66404      0.02347
     5.66810      0.02341
     5.67216      0.02338
     5.67622      0.02339
     5.68027      0.02345
     5.68433      0.02354
     5.68839      0.02367
     5.69245      0.02385
     5.69650      0.02407
     5.70056      0.02435
     5.70462      0.02468
     5.70868      0.02508
     5.71273      0.02553
     5.71679      0.02606
     5.72085      0.02667
     5.72491      0.02736
     5.72896      0.02815
     5.73302      0.02905
     5.73708      0.03006
     5.74113      0.03121
     5.74519      0.03250
     5.74925      0.03397
     5.75331      0.03562
     5.75736      0.03748
     5.76142      0.03959
     5.76548      0.04198
     5.76954      0.04468
     5.77359      0.04774
     5.77765      0.05120
     5.78171      0.05512
     5.78577      0.05956
     5.78982      0.06456
     5.79388      0.07019
     5.79794      0.07649
     5.80200      0.08346
     5.80605      0.09110
     5.81011      0.09932
    5.814169     0.107938
    5.818227     0.116668
    5.822285     0.125083
    5.826342     0.132636
    5.830399     0.138709
    5.834457     0.142706
    5.838514     0.144181
    5.842572     0.142954
    5.846629     0.139153
    5.850687     0.133183
    5.854744     0.125623
    5.858801     0.117096
    5.862859     0.108165
     5.86692      0.09928
     5.87097      0.09075
     5.87503      0.08278
     5.87909      0.07546
     5.88315      0.06882
     5.88720      0.06284
     5.89126      0.05750
     5.89532      0.05274
     5.89938      0.04849
     5.90343      0.04472
     5.90749      0.04135
     5.91155      0.03834
     5.91561      0.03566
     5.91966      0.03325
     5.92372      0.03109
     5.92778      0.02914
     5.93184      0.02738
     5.93589      0.02579
     5.93995      0.02435
     5.94401      0.02303
     5.94807      0.02184
     5.95212      0.02074
     5.95618      0.01974
     5.96024      0.01881
     5.96430      0.01796
     5.96835      0.01718
     5.97241      0.01645
     5.97647      0.01578
     5.98053      0.01516
     5.98458      0.01458
     5.98864      0.01403
     5.99270      0.01353
     5.99676      0.01306
     6.00081      0.01261
     6.00487      0.01220
     6.00893      0.01180
     6.01299      0.01144
     6.01704      0.01109
     6.02110      0.01076
     6.02516      0.01045
     6.02922      0.01016
      6.0333       0.0099
      6.0373       0.0096
      6.0414       0.0094
      6.0454       0.0091
      6.0495       0.0089
      6.0536       0.0087
      6.0576       0.0085
      6.0617       0.0083
      6.0657       0.0081
      6.0698       0.0079
      6.0738       0.0077
      6.0779       0.0076
      6.0820       0.0074
      6.0860       0.0073
      6.0901       0.0071
      6.0941       0.0070
      6.0982       0.0068
      6.1022       0.0067
      6.1063       0.0066
      6.1104       0.0065
      6.1144       0.0064
      6.1185       0.0062
      6.1225       0.0061
    6.127       0.6033E-2
    6.131       0.5932E-2
    6.135       0.5834E-2
    6.139       0.5739E-2
    6.143       0.5648E-2
    6.147       0.5559E-2
    6.151       0.5473E-2
    6.155       0.5390E-2
    6.159       0.5309E-2
    6.163       0.5231E-2
    6.167       0.5155E-2
    6.171       0.5081E-2
    6.175       0.5009E-2
    6.179       0.4939E-2
    6.183       0.4872E-2
    6.187       0.4806E-2
    6.192       0.4741E-2
    6.196       0.4679E-2
    6.200       0.4618E-2
    6.204       0.4559E-2
    6.208       0.4501E-2
    6.212       0.4445E-2
    6.216       0.4390E-2
    6.220       0.4337E-2
    6.224       0.4285E-2
    6.228       0.4234E-2
    6.232       0.4184E-2
    6.236       0.4136E-2
    6.240       0.4089E-2
    6.244       0.4043E-2
    6.248       0.3998E-2
    6.252       0.3954E-2
    6.256       0.3911E-2
    6.260       0.3869E-2
    6.265       0.3827E-2
    6.269       0.3787E-2
    6.273       0.3748E-2
    6.277       0.3710E-2
    6.281       0.3672E-2
    6.285       0.3635E-2
    6.289       0.3599E-2
    6.293       0.3564E-2
    6.297       0.3530E-2
    6.301       0.3496E-2
    6.305       0.3463E-2
    6.309       0.3430E-2
    6.313       0.3399E-2
    6.317       0.3368E-2
    6.321       0.3337E-2
    6.325       0.3308E-2
    6.329       0.3278E-2
    6.334       0.3250E-2
    6.338       0.3222E-2
    6.342       0.3194E-2
    6.346       0.3168E-2
    6.350       0.3141E-2
    6.354       0.3115E-2
    6.358       0.3090E-2
    6.362       0.3065E-2
    6.366       0.3041E-2
    6.370       0.3017E-2
    6.374       0.2994E-2
    6.378       0.2971E-2
    6.382       0.2948E-2
    6.386       0.2926E-2
    6.390       0.2905E-2
    6.394       0.2883E-2
    6.398       0.2863E-2
    6.403       0.2842E-2
    6.407       0.2822E-2
    6.411       0.2803E-2
    6.415       0.2784E-2
    6.419       0.2765E-2
    6.423       0.2746E-2
    6.427       0.2728E-2
    6.431       0.2711E-2
    6.435       0.2693E-2
    6.439       0.2676E-2
    6.443       0.2660E-2
    6.447       0.2644E-2
    6.451       0.2628E-2
    6.455       0.2612E-2
    6.459       0.2597E-2
    6.463       0.2582E-2
    6.467       0.2567E-2
    6.471       0.2553E-2
    6.476       0.2539E-2
    6.480       0.2525E-2
    6.484       0.2512E-2
    6.488       0.2499E-2
    6.492       0.2486E-2
    6.496       0.2473E-2
    6.500       0.2461E-2
    6.504       0.2449E-2
    6.508       0.2438E-2
    6.512       0.2426E-2
    6.516       0.2415E-2
    6.520       0.2405E-2
    6.524       0.2394E-2
    6.528       0.2384E-2
    6.532       0.2374E-2
    6.536       0.2364E-2
    6.540       0.2355E-2
    6.545       0.2346E-2
    6.549       0.2337E-2
    6.553       0.2329E-2
    6.557       0.2321E-2
    6.561       0.2313E-2
    6.565       0.2305E-2
    6.569       0.2298E-2
    6.573       0.2291E-2
    6.577       0.2284E-2
    6.581       0.2277E-2
    6.585       0.2271E-2
    6.589       0.2265E-2
    6.593       0.2260E-2
    6.597       0.2254E-2
    6.601       0.2249E-2
    6.605       0.2244E-2
    6.609       0.2240E-2
    6.613       0.2236E-2
    6.618       0.2232E-2
    6.622       0.2228E-2
    6.626       0.2225E-2
    6.630       0.2222E-2
    6.634       0.2219E-2
    6.638       0.2217E-2
    6.642       0.2215E-2
    6.646       0.2214E-2
    6.650       0.2212E-2
    6.654       0.2211E-2
    6.658       0.2211E-2
    6.662       0.2210E-2
    6.666       0.2210E-2
    6.670       0.2211E-2
    6.674       0.2212E-2
    6.678       0.2213E-2
    6.682       0.2214E-2
    6.687       0.2216E-2
    6.691       0.2219E-2
    6.695       0.2221E-2
    6.699       0.2225E-2
    6.703       0.2228E-2
    6.707       0.2232E-2
    6.711       0.2237E-2
    6.715       0.2242E-2
    6.719       0.2247E-2
    6.723       0.2253E-2
    6.727       0.2260E-2
    6.731       0.2267E-2
    6.735       0.2274E-2
    6.739       0.2283E-2
    6.743       0.2291E-2
    6.747       0.2300E-2
    6.751       0.2310E-2
    6.756       0.2321E-2
    6.760       0.2332E-2
    6.764       0.2344E-2
    6.768       0.2356E-2
    6.772       0.2370E-2
    6.776       0.2384E-2
    6.780       0.2398E-2
    6.784       0.2414E-2
    6.788       0.2430E-2
    6.792       0.2448E-2
    6.796       0.2466E-2
    6.800       0.2485E-2
    6.804       0.2505E-2
    6.808       0.2526E-2
    6.812       0.2548E-2
    6.816       0.2572E-2
    6.820       0.2596E-2
    6.824       0.2622E-2
    6.829       0.2649E-2
    6.833       0.2677E-2
    6.837       0.2707E-2
    6.841       0.2738E-2
    6.845       0.2771E-2
    6.849       0.2805E-2
    6.853       0.2841E-2
    6.857       0.2879E-2
    6.861       0.2919E-2
    6.865       0.2961E-2
    6.869       0.3004E-2
    6.873       0.3050E-2
    6.877       0.3098E-2
    6.881       0.3149E-2
    6.885       0.3202E-2
    6.889       0.3258E-2
    6.893       0.3317E-2
    6.898       0.3379E-2
    6.902       0.3445E-2
    6.906       0.3513E-2
    6.910       0.3586E-2
    6.914       0.3662E-2
    6.918       0.3743E-2
    6.922       0.3828E-2
    6.926       0.3918E-2
    6.930       0.4012E-2
    6.934       0.4113E-2
    6.938       0.4219E-2
    6.942       0.4331E-2
    6.946       0.4451E-2
    6.950       0.4577E-2
    6.954       0.4711E-2
    6.958       0.4854E-2
    6.962       0.5005E-2
    6.966       0.5167E-2
    6.971       0.5339E-2
    6.975       0.5523E-2
    6.979       0.5719E-2
    6.983       0.5929E-2
    6.987       0.6153E-2
    6.991       0.6394E-2
    6.995       0.6653E-2
    6.999       0.6931E-2
      7.0030       0.0072
      7.0071       0.0076
      7.0111       0.0079
      7.0152       0.0083
      7.0192       0.0087
      7.0233       0.0091
      7.0274       0.0096
     7.03141      0.01014
     7.03547      0.01071
     7.03953      0.01134
     7.04358      0.01203
     7.04764      0.01279
     7.05170      0.01362
     7.05575      0.01454
     7.05981      0.01556
     7.06387      0.01669
     7.06793      0.01795
     7.07198      0.01935
     7.07604      0.02091
     7.08010      0.02267
     7.08416      0.02463
     7.08821      0.02684
     7.09227      0.02933
     7.09633      0.03213
     7.10039      0.03527
     7.10444      0.03881
     7.10850      0.04276
     7.11256      0.04715
     7.11662      0.05200
     7.12067      0.05727
     7.12473      0.06289
     7.12879      0.06872
     7.13285      0.07454
     7.13690      0.08004
     7.14096      0.08485
     7.14502      0.08854
     7.14908      0.09076
     7.15313      0.09124
     7.15719      0.08994
     7.16125      0.08700
     7.16531      0.08273
     7.16936      0.07755
     7.17342      0.07185
     7.17748      0.06598
     7.18154      0.06022
     7.18559      0.05474
     7.18965      0.04965
     7.19371      0.04500
     7.19777      0.04081
     7.20182      0.03704
     7.20588      0.03368
     7.20994      0.03070
     7.21400      0.02804
     7.21805      0.02568
     7.22211      0.02358
     7.22617      0.02170
     7.23023      0.02003
     7.23428      0.01854
     7.23834      0.01720
     7.24240      0.01599
     7.24646      0.01491
     7.25051      0.01393
     7.25457      0.01304
     7.25863      0.01223
     7.26269      0.01150
     7.26674      0.01083
     7.27080      0.01022
      7.2749       0.0097
      7.2789       0.0092
      7.2830       0.0087
      7.2870       0.0082
      7.2911       0.0078
      7.2951       0.0075
    7.299       0.7130E-2
    7.303       0.6810E-2
    7.307       0.6513E-2
    7.311       0.6237E-2
    7.315       0.5979E-2
    7.319       0.5738E-2
    7.324       0.5512E-2
    7.328       0.5301E-2
    7.332       0.5103E-2
    7.336       0.4917E-2
    7.340       0.4741E-2
    7.344       0.4577E-2
    7.348       0.4421E-2
    7.352       0.4275E-2
    7.356       0.4136E-2
    7.360       0.4005E-2
    7.364       0.3881E-2
    7.368       0.3763E-2
    7.372       0.3652E-2
    7.376       0.3546E-2
    7.380       0.3445E-2
    7.384       0.3349E-2
    7.388       0.3258E-2
    7.393       0.3171E-2
    7.397       0.3088E-2
    7.401       0.3009E-2
    7.405       0.2934E-2
    7.409       0.2862E-2
    7.413       0.2793E-2
    7.417       0.2726E-2
    7.421       0.2663E-2
    7.425       0.2602E-2
    7.429       0.2544E-2
    7.433       0.2488E-2
    7.437       0.2435E-2
    7.441       0.2383E-2
    7.445       0.2334E-2
    7.449       0.2286E-2
    7.453       0.2240E-2
    7.457       0.2196E-2
    7.462       0.2154E-2
    7.466       0.2113E-2
    7.470       0.2073E-2
    7.474       0.2035E-2
    7.478       0.1998E-2
    7.482       0.1963E-2
    7.486       0.1928E-2
    7.490       0.1895E-2
    7.494       0.1863E-2
    7.498       0.1832E-2
    7.502       0.1802E-2
    7.506       0.1772E-2
    7.510       0.1744E-2
    7.514       0.1717E-2
    7.518       0.1690E-2
    7.522       0.1664E-2
    7.526       0.1639E-2
    7.530       0.1615E-2
    7.535       0.1592E-2
    7.539       0.1569E-2
    7.543       0.1547E-2
    7.547       0.1525E-2
    7.551       0.1504E-2
    7.555       0.1483E-2
    7.559       0.1464E-2
    7.563       0.1444E-2
    7.567       0.1425E-2
    7.571       0.1407E-2
    7.575       0.1389E-2
    7.579       0.1372E-2
    7.583       0.1355E-2
    7.587       0.1338E-2
    7.591       0.1322E-2
    7.595       0.1306E-2
    7.599       0.1291E-2
    7.604       0.1276E-2
    7.608       0.1261E-2
    7.612       0.1247E-2
    7.616       0.1233E-2
    7.620       0.1219E-2
    7.624       0.1206E-2
    7.628       0.1193E-2
    7.632       0.1180E-2
    7.636       0.1168E-2
    7.640       0.1156E-2
    7.644       0.1144E-2
    7.648       0.1132E-2
# 
# 08/15/2018 at 23:22 YPP @ narro [start]
# 08/15/2018 at 23:22             [end]
#
# .-Input file : yambo.in
# | excitons                       # [R] Excitons
# | amplitude                      # [R] Amplitude
# | BoseTemp= 0.000000     eV      # Bosonic Temperature
# | States= "1 - 2"                # Index of the BS state(s)
# | #DipWeight                     #  Weight the contribution to the exciton WFs with the dipoles
# | Degen_Step=   0.0100   eV      # Maximum energy separation of two degenerate states
