#                                                           
#  **    **    **     ****     ****  ******     *******     
# //**  **    ****   /**/**   **/** /*////**   **/////**    
#  //****    **//**  /**//** ** /** /*   /**  **     //**   
#   //**    **  //** /** //***  /** /******  /**      /**   
#    /**   **********/**  //*   /** /*//// **/**      /**   
#    /**  /**//////**/**   /    /** /*    /**//**     **    
#    /**  /**     /**/**        /** /*******  //*******     
#    //   //      // //         //  ///////    ///////      
#                                                           
#        Version 4.3.0 Revision 15734 Hash 50fd1d2          
#                  MPI+SLK+OpenMP Build                     
#                http://www.yambo-code.org                  
#
#
# Electron-Hole pairs that contributes to Excitonic State 2 more than 5%
#
#    E    [eV]    Amplitude
#    
      3.5947       0.0046
      3.5988       0.0046
      3.6028       0.0047
      3.6069       0.0048
      3.6110       0.0048
      3.6150       0.0049
      3.6191       0.0050
      3.6231       0.0051
      3.6272       0.0051
      3.6313       0.0052
      3.6353       0.0053
      3.6394       0.0054
      3.6434       0.0055
      3.6475       0.0056
      3.6515       0.0056
      3.6556       0.0057
      3.6597       0.0058
      3.6637       0.0059
      3.6678       0.0060
      3.6718       0.0061
      3.6759       0.0062
      3.6799       0.0064
      3.6840       0.0065
      3.6881       0.0066
      3.6921       0.0067
      3.6962       0.0068
      3.7002       0.0069
      3.7043       0.0071
      3.7083       0.0072
      3.7124       0.0073
      3.7165       0.0075
      3.7205       0.0076
      3.7246       0.0078
      3.7286       0.0079
      3.7327       0.0081
      3.7367       0.0083
      3.7408       0.0084
      3.7449       0.0086
      3.7489       0.0088
      3.7530       0.0090
      3.7570       0.0092
      3.7611       0.0094
      3.7651       0.0096
      3.7692       0.0098
     3.77326      0.01005
     3.77732      0.01029
     3.78138      0.01053
     3.78544      0.01078
     3.78949      0.01105
     3.79355      0.01132
     3.79761      0.01160
     3.80167      0.01190
     3.80572      0.01221
     3.80978      0.01253
     3.81384      0.01286
     3.81789      0.01321
     3.82195      0.01357
     3.82601      0.01395
     3.83007      0.01434
     3.83413      0.01476
     3.83818      0.01519
     3.84224      0.01564
     3.84630      0.01612
     3.85035      0.01661
     3.85441      0.01713
     3.85847      0.01768
     3.86253      0.01825
     3.86658      0.01886
     3.87064      0.01949
     3.87470      0.02016
     3.87876      0.02086
     3.88281      0.02161
     3.88687      0.02239
     3.89093      0.02322
     3.89499      0.02410
     3.89904      0.02503
     3.90310      0.02601
     3.90716      0.02706
     3.91122      0.02817
     3.91527      0.02935
     3.91933      0.03061
     3.92339      0.03195
     3.92745      0.03339
     3.93150      0.03492
     3.93556      0.03656
     3.93962      0.03832
     3.94368      0.04022
     3.94773      0.04225
     3.95179      0.04445
     3.95585      0.04681
     3.95991      0.04937
     3.96396      0.05215
     3.96802      0.05516
     3.97208      0.05844
     3.97614      0.06200
     3.98019      0.06590
     3.98425      0.07017
     3.98831      0.07485
     3.99237      0.08000
     3.99642      0.08567
     4.00048      0.09194
     4.00454      0.09888
    4.008596     0.106589
    4.012653     0.115168
    4.016711     0.124736
    4.020768     0.135437
    4.024826     0.147425
    4.028883     0.160882
    4.032940     0.176007
    4.036998     0.193024
    4.041056     0.212167
    4.045113     0.233676
    4.049170     0.257785
    4.053228     0.284676
    4.057286     0.314450
    4.061343     0.347040
    4.065401     0.382139
    4.069458     0.419062
    4.073515     0.456646
    4.077573     0.493176
    4.081630     0.526400
    4.085688     0.553709
    4.089745     0.572535
    4.093803     0.580873
    4.097860     0.577768
    4.101918     0.563581
    4.105975     0.539891
    4.110033     0.509070
    4.114090     0.473769
    4.118147     0.436441
    4.122205     0.399055
    4.126262     0.363032
    4.130320     0.329250
    4.134377     0.298183
    4.138435     0.269991
    4.142492     0.244646
    4.146550     0.221988
    4.150607     0.201810
    4.154665     0.183867
    4.158722     0.167921
    4.162780     0.153745
    4.166837     0.141126
    4.170895     0.129876
    4.174952     0.119826
    4.179009     0.110830
    4.183067     0.102757
     4.18712      0.09550
     4.19118      0.08895
     4.19524      0.08303
     4.19930      0.07767
     4.20335      0.07281
     4.20741      0.06838
     4.21147      0.06433
     4.21553      0.06064
     4.21958      0.05725
     4.22364      0.05415
     4.22770      0.05129
     4.23176      0.04865
     4.23581      0.04622
     4.23987      0.04397
     4.24393      0.04188
     4.24799      0.03995
     4.25204      0.03815
     4.25610      0.03648
     4.26016      0.03492
     4.26422      0.03346
     4.26827      0.03210
     4.27233      0.03083
     4.27639      0.02963
     4.28045      0.02851
     4.28450      0.02746
     4.28856      0.02647
     4.29262      0.02554
     4.29668      0.02466
     4.30073      0.02384
     4.30479      0.02305
     4.30885      0.02232
     4.31291      0.02162
     4.31696      0.02096
     4.32102      0.02033
     4.32508      0.01974
     4.32914      0.01918
     4.33319      0.01864
     4.33725      0.01814
     4.34131      0.01765
     4.34537      0.01719
     4.34942      0.01676
     4.35348      0.01634
     4.35754      0.01595
     4.36160      0.01557
     4.36565      0.01521
     4.36971      0.01487
     4.37377      0.01454
     4.37783      0.01422
     4.38188      0.01393
     4.38594      0.01364
     4.39000      0.01337
     4.39406      0.01311
     4.39811      0.01286
     4.40217      0.01262
     4.40623      0.01239
     4.41029      0.01217
     4.41434      0.01196
     4.41840      0.01176
     4.42246      0.01157
     4.42652      0.01138
     4.43057      0.01121
     4.43463      0.01104
     4.43869      0.01087
     4.44274      0.01072
     4.44680      0.01057
     4.45086      0.01043
     4.45492      0.01029
     4.45897      0.01016
     4.46303      0.01004
      4.4671       0.0099
      4.4711       0.0098
      4.4752       0.0097
      4.4793       0.0096
      4.4833       0.0095
      4.4874       0.0094
      4.4914       0.0093
      4.4955       0.0092
      4.4995       0.0091
      4.5036       0.0091
      4.5077       0.0090
      4.5117       0.0089
      4.5158       0.0088
      4.5198       0.0088
      4.5239       0.0087
      4.5280       0.0087
      4.5320       0.0086
      4.5361       0.0085
      4.5401       0.0085
      4.5442       0.0084
      4.5482       0.0084
      4.5523       0.0084
      4.5564       0.0083
      4.5604       0.0083
      4.5645       0.0083
      4.5685       0.0082
      4.5726       0.0082
      4.5766       0.0082
      4.5807       0.0082
      4.5848       0.0081
      4.5888       0.0081
      4.5929       0.0081
      4.5969       0.0081
      4.6010       0.0081
      4.6050       0.0081
      4.6091       0.0081
      4.6132       0.0081
      4.6172       0.0081
      4.6213       0.0081
      4.6253       0.0081
      4.6294       0.0081
      4.6334       0.0081
      4.6375       0.0081
      4.6416       0.0081
      4.6456       0.0081
      4.6497       0.0081
      4.6537       0.0081
      4.6578       0.0082
      4.6618       0.0082
      4.6659       0.0082
      4.6700       0.0082
      4.6740       0.0083
      4.6781       0.0083
      4.6821       0.0083
      4.6862       0.0084
      4.6903       0.0084
      4.6943       0.0084
      4.6984       0.0085
      4.7024       0.0085
      4.7065       0.0086
      4.7105       0.0086
      4.7146       0.0087
      4.7187       0.0087
      4.7227       0.0088
      4.7268       0.0088
      4.7308       0.0089
      4.7349       0.0089
      4.7389       0.0090
      4.7430       0.0091
      4.7471       0.0092
      4.7511       0.0092
      4.7552       0.0093
      4.7592       0.0094
      4.7633       0.0095
      4.7673       0.0095
      4.7714       0.0096
      4.7755       0.0097
      4.7795       0.0098
      4.7836       0.0099
     4.78763      0.01001
     4.79169      0.01011
     4.79574      0.01022
     4.79980      0.01033
     4.80386      0.01044
     4.80792      0.01056
     4.81197      0.01068
     4.81603      0.01080
     4.82009      0.01093
     4.82415      0.01107
     4.82820      0.01120
     4.83226      0.01134
     4.83632      0.01149
     4.84038      0.01164
     4.84443      0.01180
     4.84849      0.01196
     4.85255      0.01212
     4.85661      0.01230
     4.86066      0.01247
     4.86472      0.01265
     4.86878      0.01284
     4.87284      0.01304
     4.87689      0.01324
     4.88095      0.01344
     4.88501      0.01366
     4.88907      0.01388
     4.89312      0.01411
     4.89718      0.01434
     4.90124      0.01459
     4.90530      0.01484
     4.90935      0.01510
     4.91341      0.01537
     4.91747      0.01565
     4.92153      0.01594
     4.92558      0.01624
     4.92964      0.01655
     4.93370      0.01687
     4.93776      0.01720
     4.94181      0.01754
     4.94587      0.01790
     4.94993      0.01827
     4.95399      0.01865
     4.95804      0.01905
     4.96210      0.01946
     4.96616      0.01989
     4.97022      0.02033
     4.97427      0.02079
     4.97833      0.02127
     4.98239      0.02177
     4.98645      0.02229
     4.99050      0.02283
     4.99456      0.02339
     4.99862      0.02398
     5.00268      0.02459
     5.00673      0.02523
     5.01079      0.02589
     5.01485      0.02659
     5.01891      0.02731
     5.02296      0.02807
     5.02702      0.02886
     5.03108      0.02969
     5.03514      0.03056
     5.03919      0.03147
     5.04325      0.03243
     5.04731      0.03343
     5.05137      0.03449
     5.05542      0.03559
     5.05948      0.03676
     5.06354      0.03798
     5.06760      0.03927
     5.07165      0.04063
     5.07571      0.04207
     5.07977      0.04359
     5.08383      0.04520
     5.08788      0.04690
     5.09194      0.04870
     5.09600      0.05061
     5.10005      0.05264
     5.10411      0.05480
     5.10817      0.05710
     5.11223      0.05956
     5.11628      0.06217
     5.12034      0.06497
     5.12440      0.06797
     5.12846      0.07118
     5.13251      0.07462
     5.13657      0.07833
     5.14063      0.08232
     5.14469      0.08663
     5.14874      0.09129
     5.15280      0.09633
    5.156859     0.101808
    5.160917     0.107760
    5.164974     0.114243
    5.169032     0.121323
    5.173089     0.129069
    5.177147     0.137566
    5.181204     0.146906
    5.185262     0.157200
    5.189320     0.168571
    5.193377     0.181162
    5.197434     0.195140
    5.201491     0.210697
    5.205549     0.228050
    5.209607     0.247448
    5.213664     0.269179
    5.217722     0.293562
    5.221779     0.320952
    5.225836     0.351736
    5.229894     0.386326
    5.233952     0.425121
    5.238009     0.468477
    5.242066     0.516653
    5.246124     0.569707
    5.250181     0.627348
    5.254239     0.688769
    5.258296     0.752475
    5.262354     0.816065
    5.266411     0.876196
    5.270468     0.928752
    5.274526     0.969309
    5.278584     0.993915
    5.282641     1.000000
    5.286698     0.987049
    5.290756     0.956745
    5.294814     0.912526
    5.298871     0.858731
    5.302928     0.799733
    5.306986     0.739317
    5.311043     0.680371
    5.315101     0.624840
    5.319158     0.573874
    5.323216     0.528036
    5.327273     0.487476
    5.331330     0.452082
    5.335388     0.421602
    5.339446     0.395744
    5.343503     0.374187
    5.347560     0.356634
    5.351618     0.342831
    5.355675     0.332559
    5.359733     0.325634
    5.363791     0.321901
    5.367848     0.321207
    5.371905     0.323379
    5.375963     0.328176
    5.380021     0.335242
    5.384078     0.344042
    5.388135     0.353810
    5.392193     0.363517
    5.396250     0.371905
    5.400308     0.377601
    5.404365     0.379343
    5.408423     0.376229
    5.412480     0.367941
    5.416537     0.354813
    5.420595     0.337727
    5.424653     0.317883
    5.428710     0.296539
    5.432767     0.274803
    5.436825     0.253527
    5.440882     0.233299
    5.444940     0.214465
    5.448997     0.197178
    5.453055     0.181471
    5.457112     0.167291
    5.461169     0.154540
    5.465227     0.143093
    5.469285     0.132824
    5.473342     0.123608
    5.477399     0.115327
    5.481457     0.107872
    5.485515     0.101149
     5.48957      0.09507
     5.49363      0.08957
     5.49769      0.08456
     5.50174      0.08001
     5.50580      0.07586
     5.50986      0.07206
     5.51392      0.06858
     5.51797      0.06538
     5.52203      0.06244
     5.52609      0.05972
     5.53015      0.05721
     5.53420      0.05490
     5.53826      0.05275
     5.54232      0.05075
     5.54638      0.04890
     5.55043      0.04718
     5.55449      0.04557
     5.55855      0.04408
     5.56261      0.04268
     5.56666      0.04138
     5.57072      0.04017
     5.57478      0.03903
     5.57884      0.03798
     5.58289      0.03699
     5.58695      0.03607
     5.59101      0.03521
     5.59507      0.03441
     5.59912      0.03367
     5.60318      0.03298
     5.60724      0.03234
     5.61130      0.03175
     5.61535      0.03120
     5.61941      0.03070
     5.62347      0.03025
     5.62753      0.02984
     5.63158      0.02947
     5.63564      0.02914
     5.63970      0.02886
     5.64376      0.02861
     5.64781      0.02841
     5.65187      0.02825
     5.65593      0.02813
     5.65999      0.02805
     5.66404      0.02801
     5.66810      0.02802
     5.67216      0.02808
     5.67622      0.02819
     5.68027      0.02835
     5.68433      0.02856
     5.68839      0.02882
     5.69245      0.02915
     5.69650      0.02955
     5.70056      0.03001
     5.70462      0.03055
     5.70868      0.03117
     5.71273      0.03188
     5.71679      0.03269
     5.72085      0.03361
     5.72491      0.03465
     5.72896      0.03582
     5.73302      0.03713
     5.73708      0.03861
     5.74113      0.04028
     5.74519      0.04215
     5.74925      0.04426
     5.75331      0.04663
     5.75736      0.04930
     5.76142      0.05231
     5.76548      0.05571
     5.76954      0.05955
     5.77359      0.06388
     5.77765      0.06879
     5.78171      0.07434
     5.78577      0.08060
     5.78982      0.08767
     5.79388      0.09561
    5.797939     0.104484
    5.801997     0.114315
    5.806054     0.125075
    5.810112     0.136645
    5.814169     0.148776
    5.818227     0.161064
    5.822285     0.172909
    5.826342     0.183544
    5.830399     0.192099
    5.834457     0.197741
    5.838514     0.199845
    5.842572     0.198154
    5.846629     0.192850
    5.850687     0.184502
    5.854744     0.173922
    5.858801     0.161984
    5.862859     0.149479
    5.866917     0.137037
    5.870974     0.125099
    5.875031     0.113936
    5.879089     0.103685
     5.88315      0.09439
     5.88720      0.08603
     5.89126      0.07856
     5.89532      0.07190
     5.89938      0.06597
     5.90343      0.06069
     5.90749      0.05598
     5.91155      0.05179
     5.91561      0.04804
     5.91966      0.04468
     5.92372      0.04167
     5.92778      0.03896
     5.93184      0.03651
     5.93589      0.03430
     5.93995      0.03229
     5.94401      0.03047
     5.94807      0.02881
     5.95212      0.02729
     5.95618      0.02590
     5.96024      0.02462
     5.96430      0.02345
     5.96835      0.02236
     5.97241      0.02136
     5.97647      0.02043
     5.98053      0.01957
     5.98458      0.01877
     5.98864      0.01803
     5.99270      0.01734
     5.99676      0.01669
     6.00081      0.01608
     6.00487      0.01551
     6.00893      0.01498
     6.01299      0.01447
     6.01704      0.01400
     6.02110      0.01356
     6.02516      0.01313
     6.02922      0.01274
     6.03327      0.01236
     6.03733      0.01200
     6.04139      0.01166
     6.04544      0.01134
     6.04950      0.01104
     6.05356      0.01075
     6.05762      0.01047
     6.06168      0.01020
      6.0657       0.0100
      6.0698       0.0097
      6.0738       0.0095
      6.0779       0.0093
      6.0820       0.0090
      6.0860       0.0088
      6.0901       0.0087
      6.0941       0.0085
      6.0982       0.0083
      6.1022       0.0081
      6.1063       0.0079
      6.1104       0.0078
      6.1144       0.0076
      6.1185       0.0075
      6.1225       0.0073
      6.1266       0.0072
      6.1307       0.0071
      6.1347       0.0069
      6.1388       0.0068
      6.1428       0.0067
      6.1469       0.0066
      6.1509       0.0065
      6.1550       0.0064
      6.1591       0.0063
    6.163       0.6160E-2
    6.167       0.6061E-2
    6.171       0.5965E-2
    6.175       0.5871E-2
    6.179       0.5781E-2
    6.183       0.5693E-2
    6.187       0.5608E-2
    6.192       0.5525E-2
    6.196       0.5444E-2
    6.200       0.5365E-2
    6.204       0.5289E-2
    6.208       0.5215E-2
    6.212       0.5142E-2
    6.216       0.5072E-2
    6.220       0.5003E-2
    6.224       0.4936E-2
    6.228       0.4871E-2
    6.232       0.4808E-2
    6.236       0.4746E-2
    6.240       0.4685E-2
    6.244       0.4626E-2
    6.248       0.4568E-2
    6.252       0.4512E-2
    6.256       0.4457E-2
    6.260       0.4404E-2
    6.265       0.4351E-2
    6.269       0.4300E-2
    6.273       0.4250E-2
    6.277       0.4201E-2
    6.281       0.4153E-2
    6.285       0.4106E-2
    6.289       0.4060E-2
    6.293       0.4016E-2
    6.297       0.3972E-2
    6.301       0.3929E-2
    6.305       0.3887E-2
    6.309       0.3846E-2
    6.313       0.3806E-2
    6.317       0.3766E-2
    6.321       0.3728E-2
    6.325       0.3690E-2
    6.329       0.3653E-2
    6.334       0.3616E-2
    6.338       0.3581E-2
    6.342       0.3546E-2
    6.346       0.3512E-2
    6.350       0.3478E-2
    6.354       0.3445E-2
    6.358       0.3413E-2
    6.362       0.3382E-2
    6.366       0.3351E-2
    6.370       0.3320E-2
    6.374       0.3291E-2
    6.378       0.3261E-2
    6.382       0.3233E-2
    6.386       0.3205E-2
    6.390       0.3177E-2
    6.394       0.3150E-2
    6.398       0.3123E-2
    6.403       0.3097E-2
    6.407       0.3072E-2
    6.411       0.3046E-2
    6.415       0.3022E-2
    6.419       0.2998E-2
    6.423       0.2974E-2
    6.427       0.2951E-2
    6.431       0.2928E-2
    6.435       0.2905E-2
    6.439       0.2883E-2
    6.443       0.2862E-2
    6.447       0.2840E-2
    6.451       0.2820E-2
    6.455       0.2799E-2
    6.459       0.2779E-2
    6.463       0.2759E-2
    6.467       0.2740E-2
    6.471       0.2721E-2
    6.476       0.2702E-2
    6.480       0.2684E-2
    6.484       0.2666E-2
    6.488       0.2649E-2
    6.492       0.2631E-2
    6.496       0.2615E-2
    6.500       0.2598E-2
    6.504       0.2582E-2
    6.508       0.2566E-2
    6.512       0.2550E-2
    6.516       0.2535E-2
    6.520       0.2520E-2
    6.524       0.2505E-2
    6.528       0.2491E-2
    6.532       0.2477E-2
    6.536       0.2463E-2
    6.540       0.2450E-2
    6.545       0.2436E-2
    6.549       0.2424E-2
    6.553       0.2411E-2
    6.557       0.2399E-2
    6.561       0.2387E-2
    6.565       0.2375E-2
    6.569       0.2363E-2
    6.573       0.2352E-2
    6.577       0.2341E-2
    6.581       0.2331E-2
    6.585       0.2320E-2
    6.589       0.2310E-2
    6.593       0.2300E-2
    6.597       0.2291E-2
    6.601       0.2282E-2
    6.605       0.2273E-2
    6.609       0.2264E-2
    6.613       0.2256E-2
    6.618       0.2248E-2
    6.622       0.2240E-2
    6.626       0.2232E-2
    6.630       0.2225E-2
    6.634       0.2218E-2
    6.638       0.2211E-2
    6.642       0.2205E-2
    6.646       0.2199E-2
    6.650       0.2193E-2
    6.654       0.2187E-2
    6.658       0.2182E-2
    6.662       0.2177E-2
    6.666       0.2173E-2
    6.670       0.2168E-2
    6.674       0.2164E-2
    6.678       0.2161E-2
    6.682       0.2157E-2
    6.687       0.2154E-2
    6.691       0.2152E-2
    6.695       0.2149E-2
    6.699       0.2147E-2
    6.703       0.2146E-2
    6.707       0.2144E-2
    6.711       0.2144E-2
    6.715       0.2143E-2
    6.719       0.2143E-2
    6.723       0.2143E-2
    6.727       0.2144E-2
    6.731       0.2145E-2
    6.735       0.2146E-2
    6.739       0.2148E-2
    6.743       0.2150E-2
    6.747       0.2153E-2
    6.751       0.2156E-2
    6.756       0.2160E-2
    6.760       0.2164E-2
    6.764       0.2169E-2
    6.768       0.2174E-2
    6.772       0.2180E-2
    6.776       0.2187E-2
    6.780       0.2194E-2
    6.784       0.2201E-2
    6.788       0.2209E-2
    6.792       0.2218E-2
    6.796       0.2228E-2
    6.800       0.2238E-2
    6.804       0.2249E-2
    6.808       0.2260E-2
    6.812       0.2273E-2
    6.816       0.2286E-2
    6.820       0.2300E-2
    6.824       0.2315E-2
    6.829       0.2331E-2
    6.833       0.2348E-2
    6.837       0.2366E-2
    6.841       0.2385E-2
    6.845       0.2405E-2
    6.849       0.2426E-2
    6.853       0.2449E-2
    6.857       0.2472E-2
    6.861       0.2497E-2
    6.865       0.2524E-2
    6.869       0.2552E-2
    6.873       0.2581E-2
    6.877       0.2613E-2
    6.881       0.2645E-2
    6.885       0.2680E-2
    6.889       0.2717E-2
    6.893       0.2756E-2
    6.898       0.2797E-2
    6.902       0.2840E-2
    6.906       0.2886E-2
    6.910       0.2934E-2
    6.914       0.2985E-2
    6.918       0.3039E-2
    6.922       0.3096E-2
    6.926       0.3157E-2
    6.930       0.3221E-2
    6.934       0.3289E-2
    6.938       0.3361E-2
    6.942       0.3438E-2
    6.946       0.3519E-2
    6.950       0.3606E-2
    6.954       0.3698E-2
    6.958       0.3795E-2
    6.962       0.3900E-2
    6.966       0.4011E-2
    6.971       0.4129E-2
    6.975       0.4256E-2
    6.979       0.4392E-2
    6.983       0.4537E-2
    6.987       0.4692E-2
    6.991       0.4859E-2
    6.995       0.5039E-2
    6.999       0.5232E-2
    7.003       0.5440E-2
    7.007       0.5664E-2
    7.011       0.5907E-2
    7.015       0.6169E-2
    7.019       0.6454E-2
    7.023       0.6763E-2
      7.0274       0.0071
      7.0314       0.0075
      7.0355       0.0079
      7.0395       0.0083
      7.0436       0.0088
      7.0476       0.0093
      7.0517       0.0099
     7.05575      0.01055
     7.05981      0.01126
     7.06387      0.01205
     7.06793      0.01293
     7.07198      0.01391
     7.07604      0.01501
     7.08010      0.01624
     7.08416      0.01762
     7.08821      0.01916
     7.09227      0.02091
     7.09633      0.02287
     7.10039      0.02507
     7.10444      0.02755
     7.10850      0.03032
     7.11256      0.03341
     7.11662      0.03681
     7.12067      0.04050
     7.12473      0.04444
     7.12879      0.04853
     7.13285      0.05262
     7.13690      0.05648
     7.14096      0.05985
     7.14502      0.06244
     7.14908      0.06399
     7.15313      0.06433
     7.15719      0.06341
     7.16125      0.06135
     7.16531      0.05835
     7.16936      0.05471
     7.17342      0.05071
     7.17748      0.04659
     7.18154      0.04255
     7.18559      0.03870
     7.18965      0.03513
     7.19371      0.03187
     7.19777      0.02892
     7.20182      0.02628
     7.20588      0.02392
     7.20994      0.02182
     7.21400      0.01996
     7.21805      0.01830
     7.22211      0.01682
     7.22617      0.01551
     7.23023      0.01433
     7.23428      0.01328
     7.23834      0.01234
     7.24240      0.01149
     7.24646      0.01073
     7.25051      0.01004
      7.2546       0.0094
      7.2586       0.0089
      7.2627       0.0083
      7.2667       0.0079
      7.2708       0.0074
    7.275       0.7044E-2
    7.279       0.6683E-2
    7.283       0.6351E-2
    7.287       0.6045E-2
    7.291       0.5762E-2
    7.295       0.5500E-2
    7.299       0.5257E-2
    7.303       0.5032E-2
    7.307       0.4822E-2
    7.311       0.4627E-2
    7.315       0.4445E-2
    7.319       0.4275E-2
    7.324       0.4115E-2
    7.328       0.3966E-2
    7.332       0.3826E-2
    7.336       0.3694E-2
    7.340       0.3570E-2
    7.344       0.3454E-2
    7.348       0.3344E-2
    7.352       0.3240E-2
    7.356       0.3141E-2
    7.360       0.3048E-2
    7.364       0.2960E-2
    7.368       0.2877E-2
    7.372       0.2797E-2
    7.376       0.2722E-2
    7.380       0.2650E-2
    7.384       0.2582E-2
    7.388       0.2517E-2
    7.393       0.2455E-2
    7.397       0.2396E-2
    7.401       0.2339E-2
    7.405       0.2285E-2
    7.409       0.2234E-2
    7.413       0.2184E-2
    7.417       0.2137E-2
    7.421       0.2092E-2
    7.425       0.2048E-2
    7.429       0.2007E-2
    7.433       0.1966E-2
    7.437       0.1928E-2
    7.441       0.1891E-2
    7.445       0.1855E-2
    7.449       0.1821E-2
    7.453       0.1788E-2
    7.457       0.1756E-2
    7.462       0.1725E-2
    7.466       0.1696E-2
    7.470       0.1667E-2
    7.474       0.1639E-2
    7.478       0.1613E-2
    7.482       0.1587E-2
    7.486       0.1562E-2
    7.490       0.1538E-2
    7.494       0.1514E-2
    7.498       0.1491E-2
    7.502       0.1469E-2
    7.506       0.1448E-2
    7.510       0.1428E-2
    7.514       0.1407E-2
    7.518       0.1388E-2
    7.522       0.1369E-2
    7.526       0.1351E-2
    7.530       0.1333E-2
    7.535       0.1316E-2
    7.539       0.1299E-2
    7.543       0.1282E-2
    7.547       0.1267E-2
    7.551       0.1251E-2
    7.555       0.1236E-2
    7.559       0.1221E-2
    7.563       0.1207E-2
    7.567       0.1193E-2
    7.571       0.1179E-2
    7.575       0.1166E-2
    7.579       0.1153E-2
    7.583       0.1140E-2
    7.587       0.1128E-2
    7.591       0.1116E-2
    7.595       0.1104E-2
    7.599       0.1093E-2
    7.604       0.1081E-2
    7.608       0.1070E-2
    7.612       0.1060E-2
    7.616       0.1049E-2
    7.620       0.1039E-2
    7.624       0.1029E-2
    7.628       0.1019E-2
    7.632       0.1009E-2
    7.636       0.9999E-3
    7.640       0.9906E-3
    7.644       0.9816E-3
    7.648       0.9727E-3
# 
# 08/15/2018 at 23:22 YPP @ narro [start]
# 08/15/2018 at 23:22             [end]
#
# .-Input file : yambo.in
# | excitons                       # [R] Excitons
# | amplitude                      # [R] Amplitude
# | BoseTemp= 0.000000     eV      # Bosonic Temperature
# | States= "1 - 2"                # Index of the BS state(s)
# | #DipWeight                     #  Weight the contribution to the exciton WFs with the dipoles
# | Degen_Step=   0.0100   eV      # Maximum energy separation of two degenerate states
