#                                                           
#  **    **    **     ****     ****  ******     *******     
# //**  **    ****   /**/**   **/** /*////**   **/////**    
#  //****    **//**  /**//** ** /** /*   /**  **     //**   
#   //**    **  //** /** //***  /** /******  /**      /**   
#    /**   **********/**  //*   /** /*//// **/**      /**   
#    /**  /**//////**/**   /    /** /*    /**//**     **    
#    /**  /**     /**/**        /** /*******  //*******     
#    //   //      // //         //  ///////    ///////      
#                                                           
#        Version 4.3.0 Revision 15734 Hash 50fd1d2          
#                  MPI+SLK+OpenMP Build                     
#                http://www.yambo-code.org                  
#
#
# Electron-Hole pairs that contributes to Excitonic State 1 more than 5%
#
#    E    [eV]    Amplitude
#    
      3.5947       0.0070
      3.5988       0.0071
      3.6028       0.0072
      3.6069       0.0073
      3.6110       0.0074
      3.6150       0.0075
      3.6191       0.0077
      3.6231       0.0078
      3.6272       0.0079
      3.6313       0.0080
      3.6353       0.0082
      3.6394       0.0083
      3.6434       0.0085
      3.6475       0.0086
      3.6515       0.0088
      3.6556       0.0089
      3.6597       0.0091
      3.6637       0.0092
      3.6678       0.0094
      3.6718       0.0096
      3.6759       0.0098
      3.6799       0.0099
     3.68400      0.01012
     3.68806      0.01032
     3.69211      0.01052
     3.69617      0.01072
     3.70023      0.01094
     3.70429      0.01116
     3.70834      0.01138
     3.71240      0.01161
     3.71646      0.01185
     3.72052      0.01210
     3.72457      0.01236
     3.72863      0.01262
     3.73269      0.01289
     3.73675      0.01317
     3.74080      0.01347
     3.74486      0.01377
     3.74892      0.01408
     3.75298      0.01440
     3.75703      0.01473
     3.76109      0.01508
     3.76515      0.01544
     3.76921      0.01581
     3.77326      0.01619
     3.77732      0.01659
     3.78138      0.01701
     3.78544      0.01744
     3.78949      0.01789
     3.79355      0.01835
     3.79761      0.01884
     3.80167      0.01934
     3.80572      0.01986
     3.80978      0.02041
     3.81384      0.02098
     3.81789      0.02157
     3.82195      0.02219
     3.82601      0.02284
     3.83007      0.02351
     3.83413      0.02422
     3.83818      0.02496
     3.84224      0.02573
     3.84630      0.02654
     3.85035      0.02739
     3.85441      0.02828
     3.85847      0.02922
     3.86253      0.03020
     3.86658      0.03124
     3.87064      0.03232
     3.87470      0.03347
     3.87876      0.03468
     3.88281      0.03595
     3.88687      0.03730
     3.89093      0.03872
     3.89499      0.04023
     3.89904      0.04182
     3.90310      0.04351
     3.90716      0.04531
     3.91122      0.04722
     3.91527      0.04925
     3.91933      0.05141
     3.92339      0.05372
     3.92745      0.05618
     3.93150      0.05882
     3.93556      0.06164
     3.93962      0.06467
     3.94368      0.06793
     3.94773      0.07143
     3.95179      0.07521
     3.95585      0.07928
     3.95991      0.08369
     3.96396      0.08847
     3.96802      0.09365
     3.97208      0.09929
    3.976136     0.105438
    3.980193     0.112153
    3.984251     0.119504
    3.988308     0.127568
    3.992366     0.136436
    3.996424     0.146212
    4.000481     0.157012
    4.004539     0.168975
    4.008596     0.182257
    4.012653     0.197042
    4.016711     0.213535
    4.020768     0.231979
    4.024826     0.252644
    4.028883     0.275843
    4.032940     0.301918
    4.036998     0.331256
    4.041056     0.364260
    4.045113     0.401346
    4.049170     0.442914
    4.053228     0.489280
    4.057286     0.540619
    4.061343     0.596815
    4.065401     0.657336
    4.069458     0.721004
    4.073515     0.785811
    4.077573     0.848801
    4.081630     0.906088
    4.085688     0.953175
    4.089745     0.985632
    4.093803     1.000000
    4.097860     0.994634
    4.101918     0.970155
    4.105975     0.929286
    4.110033     0.876120
    4.114090     0.815226
    4.118147     0.750837
    4.122205     0.686349
    4.126262     0.624209
    4.130320     0.565935
    4.134377     0.512345
    4.138435     0.463712
    4.142492     0.419987
    4.146550     0.380899
    4.150607     0.346085
    4.154665     0.315127
    4.158722     0.287613
    4.162780     0.263151
    4.166837     0.241374
    4.170895     0.221958
    4.174952     0.204611
    4.179009     0.189082
    4.183067     0.175145
    4.187124     0.162610
    4.191182     0.151305
    4.195240     0.141086
    4.199297     0.131827
    4.203354     0.123417
    4.207412     0.115761
    4.211470     0.108775
    4.215527     0.102387
     4.21958      0.09653
     4.22364      0.09116
     4.22770      0.08621
     4.23176      0.08165
     4.23581      0.07744
     4.23987      0.07354
     4.24393      0.06993
     4.24799      0.06658
     4.25204      0.06346
     4.25610      0.06055
     4.26016      0.05785
     4.26422      0.05532
     4.26827      0.05295
     4.27233      0.05074
     4.27639      0.04866
     4.28045      0.04671
     4.28450      0.04487
     4.28856      0.04315
     4.29262      0.04152
     4.29668      0.03999
     4.30073      0.03854
     4.30479      0.03718
     4.30885      0.03588
     4.31291      0.03466
     4.31696      0.03350
     4.32102      0.03240
     4.32508      0.03136
     4.32914      0.03036
     4.33319      0.02942
     4.33725      0.02852
     4.34131      0.02767
     4.34537      0.02686
     4.34942      0.02608
     4.35348      0.02534
     4.35754      0.02464
     4.36160      0.02396
     4.36565      0.02332
     4.36971      0.02270
     4.37377      0.02211
     4.37783      0.02154
     4.38188      0.02100
     4.38594      0.02049
     4.39000      0.01999
     4.39406      0.01951
     4.39811      0.01905
     4.40217      0.01862
     4.40623      0.01819
     4.41029      0.01779
     4.41434      0.01740
     4.41840      0.01702
     4.42246      0.01666
     4.42652      0.01632
     4.43057      0.01598
     4.43463      0.01566
     4.43869      0.01535
     4.44274      0.01505
     4.44680      0.01477
     4.45086      0.01449
     4.45492      0.01422
     4.45897      0.01396
     4.46303      0.01372
     4.46709      0.01348
     4.47115      0.01325
     4.47520      0.01302
     4.47926      0.01281
     4.48332      0.01260
     4.48738      0.01240
     4.49143      0.01220
     4.49549      0.01202
     4.49955      0.01183
     4.50361      0.01166
     4.50766      0.01149
     4.51172      0.01133
     4.51578      0.01117
     4.51984      0.01102
     4.52389      0.01087
     4.52795      0.01073
     4.53201      0.01059
     4.53607      0.01046
     4.54012      0.01033
     4.54418      0.01021
     4.54824      0.01009
      4.5523       0.0100
      4.5564       0.0099
      4.5604       0.0098
      4.5645       0.0096
      4.5685       0.0095
      4.5726       0.0095
      4.5766       0.0094
      4.5807       0.0093
      4.5848       0.0092
      4.5888       0.0091
      4.5929       0.0090
      4.5969       0.0089
      4.6010       0.0089
      4.6050       0.0088
      4.6091       0.0087
      4.6132       0.0087
      4.6172       0.0086
      4.6213       0.0085
      4.6253       0.0085
      4.6294       0.0084
      4.6334       0.0084
      4.6375       0.0083
      4.6416       0.0083
      4.6456       0.0082
      4.6497       0.0082
      4.6537       0.0082
      4.6578       0.0081
      4.6618       0.0081
      4.6659       0.0081
      4.6700       0.0080
      4.6740       0.0080
      4.6781       0.0080
      4.6821       0.0079
      4.6862       0.0079
      4.6903       0.0079
      4.6943       0.0079
      4.6984       0.0079
      4.7024       0.0079
      4.7065       0.0079
      4.7105       0.0078
      4.7146       0.0078
      4.7187       0.0078
      4.7227       0.0078
      4.7268       0.0078
      4.7308       0.0078
      4.7349       0.0078
      4.7389       0.0078
      4.7430       0.0079
      4.7471       0.0079
      4.7511       0.0079
      4.7552       0.0079
      4.7592       0.0079
      4.7633       0.0079
      4.7673       0.0080
      4.7714       0.0080
      4.7755       0.0080
      4.7795       0.0080
      4.7836       0.0081
      4.7876       0.0081
      4.7917       0.0081
      4.7957       0.0082
      4.7998       0.0082
      4.8039       0.0083
      4.8079       0.0083
      4.8120       0.0084
      4.8160       0.0084
      4.8201       0.0085
      4.8241       0.0085
      4.8282       0.0086
      4.8323       0.0087
      4.8363       0.0087
      4.8404       0.0088
      4.8444       0.0089
      4.8485       0.0090
      4.8525       0.0091
      4.8566       0.0091
      4.8607       0.0092
      4.8647       0.0093
      4.8688       0.0094
      4.8728       0.0095
      4.8769       0.0096
      4.8810       0.0097
      4.8850       0.0099
      4.8891       0.0100
     4.89312      0.01011
     4.89718      0.01024
     4.90124      0.01038
     4.90530      0.01052
     4.90935      0.01067
     4.91341      0.01083
     4.91747      0.01099
     4.92153      0.01115
     4.92558      0.01133
     4.92964      0.01151
     4.93370      0.01170
     4.93776      0.01189
     4.94181      0.01210
     4.94587      0.01231
     4.94993      0.01253
     4.95399      0.01276
     4.95804      0.01300
     4.96210      0.01325
     4.96616      0.01352
     4.97022      0.01379
     4.97427      0.01407
     4.97833      0.01437
     4.98239      0.01468
     4.98645      0.01500
     4.99050      0.01533
     4.99456      0.01569
     4.99862      0.01605
     5.00268      0.01644
     5.00673      0.01684
     5.01079      0.01726
     5.01485      0.01770
     5.01891      0.01816
     5.02296      0.01865
     5.02702      0.01915
     5.03108      0.01968
     5.03514      0.02024
     5.03919      0.02083
     5.04325      0.02145
     5.04731      0.02210
     5.05137      0.02278
     5.05542      0.02350
     5.05948      0.02426
     5.06354      0.02506
     5.06760      0.02590
     5.07165      0.02680
     5.07571      0.02774
     5.07977      0.02874
     5.08383      0.02980
     5.08788      0.03093
     5.09194      0.03212
     5.09600      0.03339
     5.10005      0.03475
     5.10411      0.03619
     5.10817      0.03773
     5.11223      0.03937
     5.11628      0.04112
     5.12034      0.04300
     5.12440      0.04502
     5.12846      0.04719
     5.13251      0.04952
     5.13657      0.05203
     5.14063      0.05474
     5.14469      0.05767
     5.14874      0.06085
     5.15280      0.06429
     5.15686      0.06803
     5.16092      0.07211
     5.16497      0.07656
     5.16903      0.08143
     5.17309      0.08676
     5.17715      0.09262
     5.18120      0.09908
    5.185262     0.106202
    5.189320     0.114085
    5.193377     0.122827
    5.197434     0.132547
    5.201491     0.143381
    5.205549     0.155483
    5.209607     0.169030
    5.213664     0.184227
    5.217722     0.201301
    5.221779     0.220501
    5.225836     0.242106
    5.229894     0.266407
    5.233952     0.293686
    5.238009     0.324197
    5.242066     0.358122
    5.246124     0.395498
    5.250181     0.436115
    5.254239     0.479392
    5.258296     0.524255
    5.262354     0.568984
    5.266411     0.611182
    5.270468     0.647900
    5.274526     0.675970
    5.278584     0.692555
    5.282641     0.695812
    5.286698     0.685360
    5.290756     0.662394
    5.294814     0.629359
    5.298871     0.589342
    5.302928     0.545454
    5.306986     0.500383
    5.311043     0.456172
    5.315101     0.414185
    5.319158     0.375217
    5.323216     0.339636
    5.327273     0.307512
    5.331330     0.278719
    5.335388     0.253028
    5.339446     0.230171
    5.343503     0.209854
    5.347560     0.191791
    5.351618     0.175722
    5.355675     0.161407
    5.359733     0.148629
    5.363791     0.137201
    5.367848     0.126957
    5.371905     0.117753
    5.375963     0.109461
    5.380021     0.101974
     5.38408      0.09520
     5.38813      0.08905
     5.39219      0.08346
     5.39625      0.07836
     5.40031      0.07370
     5.40436      0.06944
     5.40842      0.06552
     5.41248      0.06193
     5.41654      0.05861
     5.42060      0.05555
     5.42465      0.05273
     5.42871      0.05010
     5.43277      0.04767
     5.43682      0.04541
     5.44088      0.04331
     5.44494      0.04135
     5.44900      0.03952
     5.45305      0.03780
     5.45711      0.03620
     5.46117      0.03470
     5.46523      0.03329
     5.46928      0.03196
     5.47334      0.03071
     5.47740      0.02954
     5.48146      0.02843
     5.48551      0.02738
     5.48957      0.02639
     5.49363      0.02545
     5.49769      0.02457
     5.50174      0.02373
     5.50580      0.02293
     5.50986      0.02217
     5.51392      0.02145
     5.51797      0.02077
     5.52203      0.02012
     5.52609      0.01950
     5.53015      0.01891
     5.53420      0.01834
     5.53826      0.01780
     5.54232      0.01729
     5.54638      0.01679
     5.55043      0.01632
     5.55449      0.01587
     5.55855      0.01544
     5.56261      0.01503
     5.56666      0.01463
     5.57072      0.01425
     5.57478      0.01388
     5.57884      0.01353
     5.58289      0.01319
     5.58695      0.01287
     5.59101      0.01256
     5.59507      0.01226
     5.59912      0.01197
     5.60318      0.01169
     5.60724      0.01142
     5.61130      0.01116
     5.61535      0.01091
     5.61941      0.01067
     5.62347      0.01043
     5.62753      0.01021
      5.6316       0.0100
      5.6356       0.0098
      5.6397       0.0096
      5.6438       0.0094
      5.6478       0.0092
      5.6519       0.0090
      5.6559       0.0088
      5.6600       0.0087
      5.6640       0.0085
      5.6681       0.0083
      5.6722       0.0082
      5.6762       0.0080
      5.6803       0.0079
      5.6843       0.0077
      5.6884       0.0076
      5.6924       0.0074
      5.6965       0.0073
      5.7006       0.0072
      5.7046       0.0071
      5.7087       0.0069
      5.7127       0.0068
      5.7168       0.0067
      5.7208       0.0066
      5.7249       0.0065
      5.7290       0.0064
      5.7330       0.0063
      5.7371       0.0062
      5.7411       0.0061
      5.7452       0.0060
      5.7492       0.0059
      5.7533       0.0058
    5.757       0.5706E-2
    5.761       0.5620E-2
    5.765       0.5535E-2
    5.770       0.5453E-2
    5.774       0.5373E-2
    5.778       0.5295E-2
    5.782       0.5219E-2
    5.786       0.5144E-2
    5.790       0.5071E-2
    5.794       0.5000E-2
    5.798       0.4930E-2
    5.802       0.4863E-2
    5.806       0.4796E-2
    5.810       0.4731E-2
    5.814       0.4668E-2
    5.818       0.4606E-2
    5.822       0.4545E-2
    5.826       0.4486E-2
    5.830       0.4427E-2
    5.834       0.4371E-2
    5.839       0.4315E-2
    5.843       0.4260E-2
    5.847       0.4207E-2
    5.851       0.4155E-2
    5.855       0.4104E-2
    5.859       0.4054E-2
    5.863       0.4005E-2
    5.867       0.3957E-2
    5.871       0.3909E-2
    5.875       0.3863E-2
    5.879       0.3818E-2
    5.883       0.3774E-2
    5.887       0.3730E-2
    5.891       0.3688E-2
    5.895       0.3646E-2
    5.899       0.3605E-2
    5.903       0.3565E-2
    5.907       0.3525E-2
    5.912       0.3487E-2
    5.916       0.3449E-2
    5.920       0.3412E-2
    5.924       0.3375E-2
    5.928       0.3339E-2
    5.932       0.3304E-2
    5.936       0.3269E-2
    5.940       0.3236E-2
    5.944       0.3202E-2
    5.948       0.3170E-2
    5.952       0.3137E-2
    5.956       0.3106E-2
    5.960       0.3075E-2
    5.964       0.3045E-2
    5.968       0.3015E-2
    5.972       0.2985E-2
    5.976       0.2956E-2
    5.981       0.2928E-2
    5.985       0.2900E-2
    5.989       0.2873E-2
    5.993       0.2846E-2
    5.997       0.2820E-2
    6.001       0.2794E-2
    6.005       0.2768E-2
    6.009       0.2743E-2
    6.013       0.2718E-2
    6.017       0.2694E-2
    6.021       0.2670E-2
    6.025       0.2647E-2
    6.029       0.2623E-2
    6.033       0.2601E-2
    6.037       0.2578E-2
    6.041       0.2556E-2
    6.045       0.2535E-2
    6.050       0.2514E-2
    6.054       0.2493E-2
    6.058       0.2472E-2
    6.062       0.2452E-2
    6.066       0.2432E-2
    6.070       0.2412E-2
    6.074       0.2393E-2
    6.078       0.2374E-2
    6.082       0.2355E-2
    6.086       0.2337E-2
    6.090       0.2319E-2
    6.094       0.2301E-2
    6.098       0.2284E-2
    6.102       0.2266E-2
    6.106       0.2249E-2
    6.110       0.2233E-2
    6.114       0.2216E-2
    6.118       0.2200E-2
    6.123       0.2184E-2
    6.127       0.2168E-2
    6.131       0.2153E-2
    6.135       0.2138E-2
    6.139       0.2123E-2
    6.143       0.2108E-2
    6.147       0.2094E-2
    6.151       0.2079E-2
    6.155       0.2065E-2
    6.159       0.2051E-2
    6.163       0.2038E-2
    6.167       0.2024E-2
    6.171       0.2011E-2
    6.175       0.1998E-2
    6.179       0.1986E-2
    6.183       0.1973E-2
    6.187       0.1961E-2
    6.192       0.1948E-2
    6.196       0.1936E-2
    6.200       0.1925E-2
    6.204       0.1913E-2
    6.208       0.1902E-2
    6.212       0.1890E-2
    6.216       0.1879E-2
    6.220       0.1868E-2
    6.224       0.1858E-2
    6.228       0.1847E-2
    6.232       0.1837E-2
    6.236       0.1827E-2
    6.240       0.1817E-2
    6.244       0.1807E-2
    6.248       0.1797E-2
    6.252       0.1788E-2
    6.256       0.1778E-2
    6.260       0.1769E-2
    6.265       0.1760E-2
    6.269       0.1751E-2
    6.273       0.1742E-2
    6.277       0.1734E-2
    6.281       0.1725E-2
    6.285       0.1717E-2
    6.289       0.1709E-2
    6.293       0.1701E-2
    6.297       0.1693E-2
    6.301       0.1685E-2
    6.305       0.1678E-2
    6.309       0.1670E-2
    6.313       0.1663E-2
    6.317       0.1656E-2
    6.321       0.1649E-2
    6.325       0.1642E-2
    6.329       0.1636E-2
    6.334       0.1629E-2
    6.338       0.1623E-2
    6.342       0.1616E-2
    6.346       0.1610E-2
    6.350       0.1604E-2
    6.354       0.1598E-2
    6.358       0.1592E-2
    6.362       0.1587E-2
    6.366       0.1581E-2
    6.370       0.1576E-2
    6.374       0.1571E-2
    6.378       0.1566E-2
    6.382       0.1561E-2
    6.386       0.1556E-2
    6.390       0.1551E-2
    6.394       0.1547E-2
    6.398       0.1542E-2
    6.403       0.1538E-2
    6.407       0.1534E-2
    6.411       0.1530E-2
    6.415       0.1526E-2
    6.419       0.1522E-2
    6.423       0.1519E-2
    6.427       0.1515E-2
    6.431       0.1512E-2
    6.435       0.1509E-2
    6.439       0.1506E-2
    6.443       0.1503E-2
    6.447       0.1500E-2
    6.451       0.1497E-2
    6.455       0.1495E-2
    6.459       0.1492E-2
    6.463       0.1490E-2
    6.467       0.1488E-2
    6.471       0.1486E-2
    6.476       0.1484E-2
    6.480       0.1483E-2
    6.484       0.1481E-2
    6.488       0.1480E-2
    6.492       0.1478E-2
    6.496       0.1477E-2
    6.500       0.1476E-2
    6.504       0.1476E-2
    6.508       0.1475E-2
    6.512       0.1474E-2
    6.516       0.1474E-2
    6.520       0.1474E-2
    6.524       0.1474E-2
    6.528       0.1474E-2
    6.532       0.1475E-2
    6.536       0.1475E-2
    6.540       0.1476E-2
    6.545       0.1477E-2
    6.549       0.1478E-2
    6.553       0.1479E-2
    6.557       0.1480E-2
    6.561       0.1482E-2
    6.565       0.1484E-2
    6.569       0.1486E-2
    6.573       0.1488E-2
    6.577       0.1490E-2
    6.581       0.1493E-2
    6.585       0.1496E-2
    6.589       0.1499E-2
    6.593       0.1502E-2
    6.597       0.1505E-2
    6.601       0.1509E-2
    6.605       0.1513E-2
    6.609       0.1517E-2
    6.613       0.1521E-2
    6.618       0.1526E-2
    6.622       0.1531E-2
    6.626       0.1536E-2
    6.630       0.1541E-2
    6.634       0.1547E-2
    6.638       0.1553E-2
    6.642       0.1559E-2
    6.646       0.1566E-2
    6.650       0.1572E-2
    6.654       0.1580E-2
    6.658       0.1587E-2
    6.662       0.1595E-2
    6.666       0.1603E-2
    6.670       0.1611E-2
    6.674       0.1620E-2
    6.678       0.1629E-2
    6.682       0.1639E-2
    6.687       0.1649E-2
    6.691       0.1659E-2
    6.695       0.1670E-2
    6.699       0.1681E-2
    6.703       0.1693E-2
    6.707       0.1705E-2
    6.711       0.1718E-2
    6.715       0.1731E-2
    6.719       0.1744E-2
    6.723       0.1758E-2
    6.727       0.1773E-2
    6.731       0.1788E-2
    6.735       0.1804E-2
    6.739       0.1820E-2
    6.743       0.1837E-2
    6.747       0.1855E-2
    6.751       0.1873E-2
    6.756       0.1892E-2
    6.760       0.1912E-2
    6.764       0.1932E-2
    6.768       0.1953E-2
    6.772       0.1975E-2
    6.776       0.1998E-2
    6.780       0.2022E-2
    6.784       0.2047E-2
    6.788       0.2072E-2
    6.792       0.2099E-2
    6.796       0.2127E-2
    6.800       0.2155E-2
    6.804       0.2185E-2
    6.808       0.2216E-2
    6.812       0.2249E-2
    6.816       0.2282E-2
    6.820       0.2317E-2
    6.824       0.2354E-2
    6.829       0.2391E-2
    6.833       0.2431E-2
    6.837       0.2472E-2
    6.841       0.2515E-2
    6.845       0.2559E-2
    6.849       0.2606E-2
    6.853       0.2654E-2
    6.857       0.2705E-2
    6.861       0.2758E-2
    6.865       0.2813E-2
    6.869       0.2871E-2
    6.873       0.2931E-2
    6.877       0.2994E-2
    6.881       0.3060E-2
    6.885       0.3129E-2
    6.889       0.3201E-2
    6.893       0.3277E-2
    6.898       0.3357E-2
    6.902       0.3440E-2
    6.906       0.3528E-2
    6.910       0.3619E-2
    6.914       0.3716E-2
    6.918       0.3818E-2
    6.922       0.3925E-2
    6.926       0.4038E-2
    6.930       0.4157E-2
    6.934       0.4282E-2
    6.938       0.4415E-2
    6.942       0.4555E-2
    6.946       0.4703E-2
    6.950       0.4860E-2
    6.954       0.5026E-2
    6.958       0.5202E-2
    6.962       0.5390E-2
    6.966       0.5589E-2
    6.971       0.5801E-2
    6.975       0.6027E-2
    6.979       0.6268E-2
    6.983       0.6526E-2
    6.987       0.6801E-2
      6.9908       0.0071
      6.9949       0.0074
      6.9989       0.0078
      7.0030       0.0081
      7.0071       0.0085
      7.0111       0.0089
      7.0152       0.0094
      7.0192       0.0099
     7.02329      0.01044
     7.02735      0.01102
     7.03141      0.01166
     7.03547      0.01236
     7.03953      0.01312
     7.04358      0.01396
     7.04764      0.01488
     7.05170      0.01589
     7.05575      0.01701
     7.05981      0.01825
     7.06387      0.01962
     7.06793      0.02114
     7.07198      0.02284
     7.07604      0.02474
     7.08010      0.02686
     7.08416      0.02925
     7.08821      0.03192
     7.09227      0.03493
     7.09633      0.03832
     7.10039      0.04213
     7.10444      0.04641
     7.10850      0.05120
     7.11256      0.05652
     7.11662      0.06239
     7.12067      0.06877
     7.12473      0.07557
     7.12879      0.08263
     7.13285      0.08968
     7.13690      0.09634
    7.140962     0.102162
    7.145019     0.106635
    7.149076     0.109314
    7.153135     0.109901
    7.157191     0.108327
    7.161249     0.104771
     7.16531      0.09962
     7.16936      0.09334
     7.17342      0.08644
     7.17748      0.07935
     7.18154      0.07237
     7.18559      0.06575
     7.18965      0.05959
     7.19371      0.05397
     7.19777      0.04889
     7.20182      0.04434
     7.20588      0.04028
     7.20994      0.03666
     7.21400      0.03345
     7.21805      0.03059
     7.22211      0.02805
     7.22617      0.02579
     7.23023      0.02377
     7.23428      0.02196
     7.23834      0.02034
     7.24240      0.01889
     7.24646      0.01757
     7.25051      0.01639
     7.25457      0.01532
     7.25863      0.01435
     7.26269      0.01346
     7.26674      0.01266
     7.27080      0.01192
     7.27486      0.01125
     7.27891      0.01063
     7.28297      0.01006
      7.2870       0.0095
      7.2911       0.0091
      7.2951       0.0086
      7.2992       0.0082
      7.3033       0.0078
      7.3073       0.0074
    7.311       0.7115E-2
    7.315       0.6805E-2
    7.319       0.6515E-2
    7.324       0.6244E-2
    7.328       0.5990E-2
    7.332       0.5752E-2
    7.336       0.5529E-2
    7.340       0.5319E-2
    7.344       0.5121E-2
    7.348       0.4935E-2
    7.352       0.4759E-2
    7.356       0.4593E-2
    7.360       0.4437E-2
    7.364       0.4288E-2
    7.368       0.4148E-2
    7.372       0.4014E-2
    7.376       0.3888E-2
    7.380       0.3768E-2
    7.384       0.3654E-2
    7.388       0.3545E-2
    7.393       0.3442E-2
    7.397       0.3343E-2
    7.401       0.3249E-2
    7.405       0.3159E-2
    7.409       0.3074E-2
    7.413       0.2992E-2
    7.417       0.2913E-2
    7.421       0.2838E-2
    7.425       0.2767E-2
    7.429       0.2698E-2
    7.433       0.2632E-2
    7.437       0.2569E-2
    7.441       0.2508E-2
    7.445       0.2449E-2
    7.449       0.2393E-2
    7.453       0.2339E-2
    7.457       0.2288E-2
    7.462       0.2238E-2
    7.466       0.2190E-2
    7.470       0.2143E-2
    7.474       0.2099E-2
    7.478       0.2055E-2
    7.482       0.2014E-2
    7.486       0.1974E-2
    7.490       0.1935E-2
    7.494       0.1897E-2
    7.498       0.1861E-2
    7.502       0.1826E-2
    7.506       0.1792E-2
    7.510       0.1760E-2
    7.514       0.1728E-2
    7.518       0.1697E-2
    7.522       0.1667E-2
    7.526       0.1639E-2
    7.530       0.1611E-2
    7.535       0.1583E-2
    7.539       0.1557E-2
    7.543       0.1532E-2
    7.547       0.1507E-2
    7.551       0.1483E-2
    7.555       0.1459E-2
    7.559       0.1437E-2
    7.563       0.1414E-2
    7.567       0.1393E-2
    7.571       0.1372E-2
    7.575       0.1352E-2
    7.579       0.1332E-2
    7.583       0.1313E-2
    7.587       0.1294E-2
    7.591       0.1276E-2
    7.595       0.1258E-2
    7.599       0.1240E-2
    7.604       0.1223E-2
    7.608       0.1207E-2
    7.612       0.1191E-2
    7.616       0.1175E-2
    7.620       0.1160E-2
    7.624       0.1145E-2
    7.628       0.1130E-2
    7.632       0.1116E-2
    7.636       0.1102E-2
    7.640       0.1089E-2
    7.644       0.1075E-2
    7.648       0.1062E-2
# 
# 08/15/2018 at 23:22 YPP @ narro [start]
# 08/15/2018 at 23:22             [end]
#
# .-Input file : yambo.in
# | excitons                       # [R] Excitons
# | amplitude                      # [R] Amplitude
# | BoseTemp= 0.000000     eV      # Bosonic Temperature
# | States= "1 - 2"                # Index of the BS state(s)
# | #DipWeight                     #  Weight the contribution to the exciton WFs with the dipoles
# | Degen_Step=   0.0100   eV      # Maximum energy separation of two degenerate states
