#                                                           
# :::   :::   :::     ::::    ::::  :::::::::   ::::::::    
# :+:   :+: :+: :+:   +:+:+: :+:+:+ :+:    :+: :+:    :+:   
#  +:+ +:+ +:+   +:+  +:+ +:+:+ +:+ +:+    +:+ +:+    +:+   
#   +#++: +#++:++#++: +#+  +:+  +#+ +#++:++#+  +#+    +:+   
#    +#+  +#+     +#+ +#+       +#+ +#+    +#+ +#+    +#+   
#    #+#  #+#     #+# #+#       #+# #+#    #+# #+#    #+#   
#    ###  ###     ### ###       ### #########   ########    
#                                                           
#                                                           
#        Version 4.3.0 Revision 15341 Hash c146fb2          
#                      MPI+SLK Build                        
#                http://www.yambo-code.org                  
#
# Absorption @ Q(4) [iku] : 0.500000  0.250000  0.500000
#
#
#
# - The Green`s function is Resonant -
#
#
#    E/ev[1]      EPS-Im[2]    EPS-Re[3]
#
   -10.00       0.6208E-3     1.108   
   -9.990       0.6215E-3     1.108   
   -9.980       0.6222E-3     1.108   
   -9.970       0.6230E-3     1.108   
   -9.960       0.6237E-3     1.108   
   -9.950       0.6244E-3     1.108   
   -9.940       0.6252E-3     1.108   
   -9.930       0.6259E-3     1.108   
   -9.920       0.6267E-3     1.108   
   -9.910       0.6274E-3     1.108   
   -9.900       0.6281E-3     1.108   
   -9.890       0.6289E-3     1.109   
   -9.880       0.6296E-3     1.109   
   -9.870       0.6304E-3     1.109   
   -9.860       0.6311E-3     1.109   
   -9.850       0.6319E-3     1.109   
   -9.840       0.6326E-3     1.109   
   -9.830       0.6334E-3     1.109   
   -9.820       0.6341E-3     1.109   
   -9.810       0.6349E-3     1.109   
   -9.800       0.6356E-3     1.109   
   -9.790       0.6364E-3     1.109   
   -9.780       0.6372E-3     1.109   
   -9.770       0.6379E-3     1.109   
   -9.760       0.6387E-3     1.109   
   -9.750       0.6395E-3     1.109   
   -9.740       0.6402E-3     1.109   
   -9.730       0.6410E-3     1.110   
   -9.720       0.6418E-3     1.110   
   -9.710       0.6425E-3     1.110   
   -9.700       0.6433E-3     1.110   
   -9.690       0.6441E-3     1.110   
   -9.680       0.6448E-3     1.110   
   -9.670       0.6456E-3     1.110   
   -9.660       0.6464E-3     1.110   
   -9.650       0.6472E-3     1.110   
   -9.640       0.6479E-3     1.110   
   -9.630       0.6487E-3     1.110   
   -9.620       0.6495E-3     1.110   
   -9.610       0.6503E-3     1.110   
   -9.600       0.6511E-3     1.110   
   -9.590       0.6519E-3     1.110   
   -9.580       0.6527E-3     1.111   
   -9.570       0.6534E-3     1.111   
   -9.560       0.6542E-3     1.111   
   -9.550       0.6550E-3     1.111   
   -9.540       0.6558E-3     1.111   
   -9.530       0.6566E-3     1.111   
   -9.520       0.6574E-3     1.111   
   -9.510       0.6582E-3     1.111   
   -9.500       0.6590E-3     1.111   
   -9.490       0.6598E-3     1.111   
   -9.480       0.6606E-3     1.111   
   -9.470       0.6614E-3     1.111   
   -9.460       0.6622E-3     1.111   
   -9.450       0.6630E-3     1.111   
   -9.440       0.6638E-3     1.111   
   -9.430       0.6647E-3     1.112   
   -9.420       0.6655E-3     1.112   
   -9.410       0.6663E-3     1.112   
   -9.400       0.6671E-3     1.112   
   -9.390       0.6679E-3     1.112   
   -9.380       0.6687E-3     1.112   
   -9.370       0.6695E-3     1.112   
   -9.360       0.6704E-3     1.112   
   -9.350       0.6712E-3     1.112   
   -9.340       0.6720E-3     1.112   
   -9.330       0.6728E-3     1.112   
   -9.320       0.6737E-3     1.112   
   -9.310       0.6745E-3     1.112   
   -9.300       0.6753E-3     1.112   
   -9.290       0.6762E-3     1.112   
   -9.280       0.6770E-3     1.113   
   -9.270       0.6778E-3     1.113   
   -9.260       0.6787E-3     1.113   
   -9.250       0.6795E-3     1.113   
   -9.240       0.6803E-3     1.113   
   -9.230       0.6812E-3     1.113   
   -9.220       0.6820E-3     1.113   
   -9.210       0.6829E-3     1.113   
   -9.200       0.6837E-3     1.113   
   -9.190       0.6846E-3     1.113   
   -9.180       0.6854E-3     1.113   
   -9.170       0.6863E-3     1.113   
   -9.160       0.6871E-3     1.113   
   -9.150       0.6880E-3     1.113   
   -9.140       0.6888E-3     1.113   
   -9.130       0.6897E-3     1.114   
   -9.120       0.6905E-3     1.114   
   -9.110       0.6914E-3     1.114   
   -9.100       0.6923E-3     1.114   
   -9.090       0.6931E-3     1.114   
   -9.080       0.6940E-3     1.114   
   -9.070       0.6949E-3     1.114   
   -9.060       0.6957E-3     1.114   
   -9.050       0.6966E-3     1.114   
   -9.040       0.6975E-3     1.114   
   -9.030       0.6984E-3     1.114   
   -9.020       0.6992E-3     1.114   
   -9.010       0.7001E-3     1.114   
   -9.000       0.7010E-3     1.114   
   -8.990       0.7019E-3     1.115   
   -8.980       0.7027E-3     1.115   
   -8.970       0.7036E-3     1.115   
   -8.960       0.7045E-3     1.115   
   -8.950       0.7054E-3     1.115   
   -8.940       0.7063E-3     1.115   
   -8.930       0.7072E-3     1.115   
   -8.920       0.7081E-3     1.115   
   -8.910       0.7090E-3     1.115   
   -8.900       0.7099E-3     1.115   
   -8.890       0.7108E-3     1.115   
   -8.880       0.7117E-3     1.115   
   -8.870       0.7126E-3     1.115   
   -8.860       0.7135E-3     1.115   
   -8.850       0.7144E-3     1.116   
   -8.840       0.7153E-3     1.116   
   -8.830       0.7162E-3     1.116   
   -8.820       0.7171E-3     1.116   
   -8.810       0.7180E-3     1.116   
   -8.800       0.7189E-3     1.116   
   -8.790       0.7198E-3     1.116   
   -8.780       0.7208E-3     1.116   
   -8.770       0.7217E-3     1.116   
   -8.760       0.7226E-3     1.116   
   -8.750       0.7235E-3     1.116   
   -8.740       0.7244E-3     1.116   
   -8.730       0.7254E-3     1.116   
   -8.720       0.7263E-3     1.116   
   -8.710       0.7272E-3     1.117   
   -8.700       0.7282E-3     1.117   
   -8.690       0.7291E-3     1.117   
   -8.680       0.7300E-3     1.117   
   -8.670       0.7310E-3     1.117   
   -8.660       0.7319E-3     1.117   
   -8.650       0.7328E-3     1.117   
   -8.640       0.7338E-3     1.117   
   -8.630       0.7347E-3     1.117   
   -8.620       0.7357E-3     1.117   
   -8.610       0.7366E-3     1.117   
   -8.600       0.7376E-3     1.117   
   -8.590       0.7385E-3     1.117   
   -8.580       0.7395E-3     1.117   
   -8.570       0.7404E-3     1.118   
   -8.560       0.7414E-3     1.118   
   -8.550       0.7424E-3     1.118   
   -8.540       0.7433E-3     1.118   
   -8.530       0.7443E-3     1.118   
   -8.520       0.7453E-3     1.118   
   -8.510       0.7462E-3     1.118   
   -8.500       0.7472E-3     1.118   
   -8.490       0.7482E-3     1.118   
   -8.480       0.7491E-3     1.118   
   -8.470       0.7501E-3     1.118   
   -8.460       0.7511E-3     1.118   
   -8.450       0.7521E-3     1.118   
   -8.440       0.7530E-3     1.119   
   -8.430       0.7540E-3     1.119   
   -8.420       0.7550E-3     1.119   
   -8.410       0.7560E-3     1.119   
   -8.400       0.7570E-3     1.119   
   -8.390       0.7580E-3     1.119   
   -8.380       0.7590E-3     1.119   
   -8.370       0.7600E-3     1.119   
   -8.360       0.7610E-3     1.119   
   -8.350       0.7620E-3     1.119   
   -8.340       0.7630E-3     1.119   
   -8.330       0.7640E-3     1.119   
   -8.320       0.7650E-3     1.119   
   -8.310       0.7660E-3     1.120   
   -8.300       0.7670E-3     1.120   
   -8.290       0.7680E-3     1.120   
   -8.280       0.7690E-3     1.120   
   -8.270       0.7700E-3     1.120   
   -8.260       0.7710E-3     1.120   
   -8.250       0.7721E-3     1.120   
   -8.240       0.7731E-3     1.120   
   -8.230       0.7741E-3     1.120   
   -8.220       0.7751E-3     1.120   
   -8.210       0.7762E-3     1.120   
   -8.200       0.7772E-3     1.120   
   -8.190       0.7782E-3     1.120   
   -8.180       0.7793E-3     1.121   
   -8.170       0.7803E-3     1.121   
   -8.160       0.7813E-3     1.121   
   -8.150       0.7824E-3     1.121   
   -8.140       0.7834E-3     1.121   
   -8.130       0.7845E-3     1.121   
   -8.120       0.7855E-3     1.121   
   -8.110       0.7865E-3     1.121   
   -8.100       0.7876E-3     1.121   
   -8.090       0.7887E-3     1.121   
   -8.080       0.7897E-3     1.121   
   -8.070       0.7908E-3     1.121   
   -8.060       0.7918E-3     1.121   
   -8.050       0.7929E-3     1.122   
   -8.040       0.7939E-3     1.122   
   -8.030       0.7950E-3     1.122   
   -8.020       0.7961E-3     1.122   
   -8.010       0.7972E-3     1.122   
   -8.000       0.7982E-3     1.122   
   -7.990       0.7993E-3     1.122   
   -7.980       0.8004E-3     1.122   
   -7.970       0.8015E-3     1.122   
   -7.960       0.8025E-3     1.122   
   -7.950       0.8036E-3     1.122   
   -7.940       0.8047E-3     1.122   
   -7.930       0.8058E-3     1.122   
   -7.920       0.8069E-3     1.123   
   -7.910       0.8080E-3     1.123   
   -7.900       0.8091E-3     1.123   
   -7.890       0.8102E-3     1.123   
   -7.880       0.8113E-3     1.123   
   -7.870       0.8124E-3     1.123   
   -7.860       0.8135E-3     1.123   
   -7.850       0.8146E-3     1.123   
   -7.840       0.8157E-3     1.123   
   -7.830       0.8168E-3     1.123   
   -7.820       0.8179E-3     1.123   
   -7.810       0.8190E-3     1.123   
   -7.800       0.8202E-3     1.124   
   -7.790       0.8213E-3     1.124   
   -7.780       0.8224E-3     1.124   
   -7.770       0.8235E-3     1.124   
   -7.760       0.8246E-3     1.124   
   -7.750       0.8258E-3     1.124   
   -7.740       0.8269E-3     1.124   
   -7.730       0.8280E-3     1.124   
   -7.720       0.8292E-3     1.124   
   -7.710       0.8303E-3     1.124   
   -7.700       0.8315E-3     1.124   
   -7.690       0.8326E-3     1.124   
   -7.680       0.8338E-3     1.125   
   -7.670       0.8349E-3     1.125   
   -7.660       0.8361E-3     1.125   
   -7.650       0.8372E-3     1.125   
   -7.640       0.8384E-3     1.125   
   -7.630       0.8395E-3     1.125   
   -7.620       0.8407E-3     1.125   
   -7.610       0.8418E-3     1.125   
   -7.600       0.8430E-3     1.125   
   -7.590       0.8442E-3     1.125   
   -7.580       0.8454E-3     1.125   
   -7.570       0.8465E-3     1.125   
   -7.560       0.8477E-3     1.126   
   -7.550       0.8489E-3     1.126   
   -7.540       0.8501E-3     1.126   
   -7.530       0.8512E-3     1.126   
   -7.520       0.8524E-3     1.126   
   -7.510       0.8536E-3     1.126   
   -7.500       0.8548E-3     1.126   
   -7.490       0.8560E-3     1.126   
   -7.480       0.8572E-3     1.126   
   -7.470       0.8584E-3     1.126   
   -7.460       0.8596E-3     1.126   
   -7.450       0.8608E-3     1.126   
   -7.440       0.8620E-3     1.127   
   -7.430       0.8632E-3     1.127   
   -7.420       0.8644E-3     1.127   
   -7.410       0.8657E-3     1.127   
   -7.400       0.8669E-3     1.127   
   -7.390       0.8681E-3     1.127   
   -7.380       0.8693E-3     1.127   
   -7.370       0.8705E-3     1.127   
   -7.360       0.8718E-3     1.127   
   -7.350       0.8730E-3     1.127   
   -7.340       0.8742E-3     1.127   
   -7.330       0.8755E-3     1.128   
   -7.320       0.8767E-3     1.128   
   -7.310       0.8779E-3     1.128   
   -7.300       0.8792E-3     1.128   
   -7.290       0.8804E-3     1.128   
   -7.280       0.8817E-3     1.128   
   -7.270       0.8829E-3     1.128   
   -7.260       0.8842E-3     1.128   
   -7.250       0.8854E-3     1.128   
   -7.240       0.8867E-3     1.128   
   -7.230       0.8880E-3     1.128   
   -7.220       0.8892E-3     1.129   
   -7.210       0.8905E-3     1.129   
   -7.200       0.8918E-3     1.129   
   -7.190       0.8930E-3     1.129   
   -7.180       0.8943E-3     1.129   
   -7.170       0.8956E-3     1.129   
   -7.160       0.8969E-3     1.129   
   -7.150       0.8982E-3     1.129   
   -7.140       0.8995E-3     1.129   
   -7.130       0.9008E-3     1.129   
   -7.120       0.9020E-3     1.129   
   -7.110       0.9033E-3     1.129   
   -7.100       0.9046E-3     1.130   
   -7.090       0.9059E-3     1.130   
   -7.080       0.9072E-3     1.130   
   -7.070       0.9086E-3     1.130   
   -7.060       0.9099E-3     1.130   
   -7.050       0.9112E-3     1.130   
   -7.040       0.9125E-3     1.130   
   -7.030       0.9138E-3     1.130   
   -7.020       0.9151E-3     1.130   
   -7.010       0.9165E-3     1.130   
   -7.000       0.9178E-3     1.130   
   -6.990       0.9191E-3     1.131   
   -6.980       0.9205E-3     1.131   
   -6.970       0.9218E-3     1.131   
   -6.960       0.9231E-3     1.131   
   -6.950       0.9245E-3     1.131   
   -6.940       0.9258E-3     1.131   
   -6.930       0.9272E-3     1.131   
   -6.920       0.9285E-3     1.131   
   -6.910       0.9299E-3     1.131   
   -6.900       0.9312E-3     1.131   
   -6.890       0.9326E-3     1.132   
   -6.880       0.9340E-3     1.132   
   -6.870       0.9353E-3     1.132   
   -6.860       0.9367E-3     1.132   
   -6.850       0.9381E-3     1.132   
   -6.840       0.9395E-3     1.132   
   -6.830       0.9408E-3     1.132   
   -6.820       0.9422E-3     1.132   
   -6.810       0.9436E-3     1.132   
   -6.800       0.9450E-3     1.132   
   -6.790       0.9464E-3     1.132   
   -6.780       0.9478E-3     1.133   
   -6.770       0.9492E-3     1.133   
   -6.760       0.9506E-3     1.133   
   -6.750       0.9520E-3     1.133   
   -6.740       0.9534E-3     1.133   
   -6.730       0.9548E-3     1.133   
   -6.720       0.9562E-3     1.133   
   -6.710       0.9577E-3     1.133   
   -6.700       0.9591E-3     1.133   
   -6.690       0.9605E-3     1.133   
   -6.680       0.9619E-3     1.133   
   -6.670       0.9634E-3     1.134   
   -6.660       0.9648E-3     1.134   
   -6.650       0.9662E-3     1.134   
   -6.640       0.9677E-3     1.134   
   -6.630       0.9691E-3     1.134   
   -6.620       0.9706E-3     1.134   
   -6.610       0.9720E-3     1.134   
   -6.600       0.9735E-3     1.134   
   -6.590       0.9749E-3     1.134   
   -6.580       0.9764E-3     1.134   
   -6.570       0.9779E-3     1.135   
   -6.560       0.9793E-3     1.135   
   -6.550       0.9808E-3     1.135   
   -6.540       0.9823E-3     1.135   
   -6.530       0.9838E-3     1.135   
   -6.520       0.9852E-3     1.135   
   -6.510       0.9867E-3     1.135   
   -6.500       0.9882E-3     1.135   
   -6.490       0.9897E-3     1.135   
   -6.480       0.9912E-3     1.135   
   -6.470       0.9927E-3     1.136   
   -6.460       0.9942E-3     1.136   
   -6.450       0.9957E-3     1.136   
   -6.440       0.9972E-3     1.136   
   -6.430       0.9987E-3     1.136   
   -6.420       0.1000E-2     1.136   
   -6.410       0.1002E-2     1.136   
   -6.400       0.1003E-2     1.136   
   -6.390       0.1005E-2     1.136   
   -6.380       0.1006E-2     1.136   
   -6.370       0.1008E-2     1.137   
   -6.360       0.1009E-2     1.137   
   -6.350       0.1011E-2     1.137   
   -6.340       0.1013E-2     1.137   
   -6.330       0.1014E-2     1.137   
   -6.320       0.1016E-2     1.137   
   -6.310       0.1017E-2     1.137   
   -6.300       0.1019E-2     1.137   
   -6.290       0.1020E-2     1.137   
   -6.280       0.1022E-2     1.137   
   -6.270       0.1023E-2     1.138   
   -6.260       0.1025E-2     1.138   
   -6.250       0.1027E-2     1.138   
   -6.240       0.1028E-2     1.138   
   -6.230       0.1030E-2     1.138   
   -6.220       0.1031E-2     1.138   
   -6.210       0.1033E-2     1.138   
   -6.200       0.1035E-2     1.138   
   -6.190       0.1036E-2     1.138   
   -6.180       0.1038E-2     1.138   
   -6.170       0.1039E-2     1.139   
   -6.160       0.1041E-2     1.139   
   -6.150       0.1043E-2     1.139   
   -6.140       0.1044E-2     1.139   
   -6.130       0.1046E-2     1.139   
   -6.120       0.1047E-2     1.139   
   -6.110       0.1049E-2     1.139   
   -6.100       0.1051E-2     1.139   
   -6.090       0.1052E-2     1.139   
   -6.080       0.1054E-2     1.140   
   -6.070       0.1056E-2     1.140   
   -6.060       0.1057E-2     1.140   
   -6.050       0.1059E-2     1.140   
   -6.040       0.1061E-2     1.140   
   -6.030       0.1062E-2     1.140   
   -6.020       0.1064E-2     1.140   
   -6.010       0.1066E-2     1.140   
   -6.000       0.1067E-2     1.140   
   -5.990       0.1069E-2     1.140   
   -5.980       0.1071E-2     1.141   
   -5.970       0.1072E-2     1.141   
   -5.960       0.1074E-2     1.141   
   -5.950       0.1076E-2     1.141   
   -5.940       0.1077E-2     1.141   
   -5.930       0.1079E-2     1.141   
   -5.920       0.1081E-2     1.141   
   -5.910       0.1083E-2     1.141   
   -5.900       0.1084E-2     1.141   
   -5.890       0.1086E-2     1.142   
   -5.880       0.1088E-2     1.142   
   -5.870       0.1089E-2     1.142   
   -5.860       0.1091E-2     1.142   
   -5.850       0.1093E-2     1.142   
   -5.840       0.1095E-2     1.142   
   -5.830       0.1096E-2     1.142   
   -5.820       0.1098E-2     1.142   
   -5.810       0.1100E-2     1.142   
   -5.800       0.1102E-2     1.143   
   -5.790       0.1103E-2     1.143   
   -5.780       0.1105E-2     1.143   
   -5.770       0.1107E-2     1.143   
   -5.760       0.1109E-2     1.143   
   -5.750       0.1111E-2     1.143   
   -5.740       0.1112E-2     1.143   
   -5.730       0.1114E-2     1.143   
   -5.720       0.1116E-2     1.143   
   -5.710       0.1118E-2     1.144   
   -5.700       0.1120E-2     1.144   
   -5.690       0.1121E-2     1.144   
   -5.680       0.1123E-2     1.144   
   -5.670       0.1125E-2     1.144   
   -5.660       0.1127E-2     1.144   
   -5.650       0.1129E-2     1.144   
   -5.640       0.1130E-2     1.144   
   -5.630       0.1132E-2     1.144   
   -5.620       0.1134E-2     1.145   
   -5.610       0.1136E-2     1.145   
   -5.600       0.1138E-2     1.145   
   -5.590       0.1140E-2     1.145   
   -5.580       0.1142E-2     1.145   
   -5.570       0.1143E-2     1.145   
   -5.560       0.1145E-2     1.145   
   -5.550       0.1147E-2     1.145   
   -5.540       0.1149E-2     1.145   
   -5.530       0.1151E-2     1.146   
   -5.520       0.1153E-2     1.146   
   -5.510       0.1155E-2     1.146   
   -5.500       0.1157E-2     1.146   
   -5.490       0.1158E-2     1.146   
   -5.480       0.1160E-2     1.146   
   -5.470       0.1162E-2     1.146   
   -5.460       0.1164E-2     1.146   
   -5.450       0.1166E-2     1.147   
   -5.440       0.1168E-2     1.147   
   -5.430       0.1170E-2     1.147   
   -5.420       0.1172E-2     1.147   
   -5.410       0.1174E-2     1.147   
   -5.400       0.1176E-2     1.147   
   -5.390       0.1178E-2     1.147   
   -5.380       0.1180E-2     1.147   
   -5.370       0.1182E-2     1.147   
   -5.360       0.1184E-2     1.148   
   -5.350       0.1186E-2     1.148   
   -5.340       0.1188E-2     1.148   
   -5.330       0.1190E-2     1.148   
   -5.320       0.1192E-2     1.148   
   -5.310       0.1194E-2     1.148   
   -5.300       0.1196E-2     1.148   
   -5.290       0.1198E-2     1.148   
   -5.280       0.1200E-2     1.149   
   -5.270       0.1202E-2     1.149   
   -5.260       0.1204E-2     1.149   
   -5.250       0.1206E-2     1.149   
   -5.240       0.1208E-2     1.149   
   -5.230       0.1210E-2     1.149   
   -5.220       0.1212E-2     1.149   
   -5.210       0.1214E-2     1.149   
   -5.200       0.1216E-2     1.149   
   -5.190       0.1218E-2     1.150   
   -5.180       0.1220E-2     1.150   
   -5.170       0.1222E-2     1.150   
   -5.160       0.1224E-2     1.150   
   -5.150       0.1226E-2     1.150   
   -5.140       0.1228E-2     1.150   
   -5.130       0.1230E-2     1.150   
   -5.120       0.1232E-2     1.150   
   -5.110       0.1234E-2     1.151   
   -5.100       0.1237E-2     1.151   
   -5.090       0.1239E-2     1.151   
   -5.080       0.1241E-2     1.151   
   -5.070       0.1243E-2     1.151   
   -5.060       0.1245E-2     1.151   
   -5.050       0.1247E-2     1.151   
   -5.040       0.1249E-2     1.151   
   -5.030       0.1251E-2     1.152   
   -5.020       0.1254E-2     1.152   
   -5.010       0.1256E-2     1.152   
   -5.000       0.1258E-2     1.152   
   -4.990       0.1260E-2     1.152   
   -4.980       0.1262E-2     1.152   
   -4.970       0.1264E-2     1.152   
   -4.960       0.1267E-2     1.152   
   -4.950       0.1269E-2     1.153   
   -4.940       0.1271E-2     1.153   
   -4.930       0.1273E-2     1.153   
   -4.920       0.1275E-2     1.153   
   -4.910       0.1278E-2     1.153   
   -4.900       0.1280E-2     1.153   
   -4.890       0.1282E-2     1.153   
   -4.880       0.1284E-2     1.153   
   -4.870       0.1286E-2     1.154   
   -4.860       0.1289E-2     1.154   
   -4.850       0.1291E-2     1.154   
   -4.840       0.1293E-2     1.154   
   -4.830       0.1295E-2     1.154   
   -4.820       0.1298E-2     1.154   
   -4.810       0.1300E-2     1.154   
   -4.800       0.1302E-2     1.155   
   -4.790       0.1305E-2     1.155   
   -4.780       0.1307E-2     1.155   
   -4.770       0.1309E-2     1.155   
   -4.760       0.1311E-2     1.155   
   -4.750       0.1314E-2     1.155   
   -4.740       0.1316E-2     1.155   
   -4.730       0.1318E-2     1.155   
   -4.720       0.1321E-2     1.156   
   -4.710       0.1323E-2     1.156   
   -4.700       0.1325E-2     1.156   
   -4.690       0.1328E-2     1.156   
   -4.680       0.1330E-2     1.156   
   -4.670       0.1332E-2     1.156   
   -4.660       0.1335E-2     1.156   
   -4.650       0.1337E-2     1.157   
   -4.640       0.1340E-2     1.157   
   -4.630       0.1342E-2     1.157   
   -4.620       0.1344E-2     1.157   
   -4.610       0.1347E-2     1.157   
   -4.600       0.1349E-2     1.157   
   -4.590       0.1352E-2     1.157   
   -4.580       0.1354E-2     1.157   
   -4.570       0.1356E-2     1.158   
   -4.560       0.1359E-2     1.158   
   -4.550       0.1361E-2     1.158   
   -4.540       0.1364E-2     1.158   
   -4.530       0.1366E-2     1.158   
   -4.520       0.1369E-2     1.158   
   -4.510       0.1371E-2     1.158   
   -4.500       0.1374E-2     1.159   
   -4.490       0.1376E-2     1.159   
   -4.480       0.1379E-2     1.159   
   -4.470       0.1381E-2     1.159   
   -4.460       0.1384E-2     1.159   
   -4.450       0.1386E-2     1.159   
   -4.440       0.1389E-2     1.159   
   -4.430       0.1391E-2     1.160   
   -4.420       0.1394E-2     1.160   
   -4.410       0.1396E-2     1.160   
   -4.400       0.1399E-2     1.160   
   -4.390       0.1401E-2     1.160   
   -4.380       0.1404E-2     1.160   
   -4.370       0.1406E-2     1.160   
   -4.360       0.1409E-2     1.160   
   -4.350       0.1412E-2     1.161   
   -4.340       0.1414E-2     1.161   
   -4.330       0.1417E-2     1.161   
   -4.320       0.1419E-2     1.161   
   -4.310       0.1422E-2     1.161   
   -4.300       0.1425E-2     1.161   
   -4.290       0.1427E-2     1.161   
   -4.280       0.1430E-2     1.162   
   -4.270       0.1433E-2     1.162   
   -4.260       0.1435E-2     1.162   
   -4.250       0.1438E-2     1.162   
   -4.240       0.1440E-2     1.162   
   -4.230       0.1443E-2     1.162   
   -4.220       0.1446E-2     1.162   
   -4.210       0.1449E-2     1.163   
   -4.200       0.1451E-2     1.163   
   -4.190       0.1454E-2     1.163   
   -4.180       0.1457E-2     1.163   
   -4.170       0.1459E-2     1.163   
   -4.160       0.1462E-2     1.163   
   -4.150       0.1465E-2     1.164   
   -4.140       0.1468E-2     1.164   
   -4.130       0.1470E-2     1.164   
   -4.120       0.1473E-2     1.164   
   -4.110       0.1476E-2     1.164   
   -4.100       0.1479E-2     1.164   
   -4.090       0.1481E-2     1.164   
   -4.080       0.1484E-2     1.165   
   -4.070       0.1487E-2     1.165   
   -4.060       0.1490E-2     1.165   
   -4.050       0.1493E-2     1.165   
   -4.040       0.1495E-2     1.165   
   -4.030       0.1498E-2     1.165   
   -4.020       0.1501E-2     1.165   
   -4.010       0.1504E-2     1.166   
   -4.000       0.1507E-2     1.166   
   -3.990       0.1510E-2     1.166   
   -3.980       0.1512E-2     1.166   
   -3.970       0.1515E-2     1.166   
   -3.960       0.1518E-2     1.166   
   -3.950       0.1521E-2     1.166   
   -3.940       0.1524E-2     1.167   
   -3.930       0.1527E-2     1.167   
   -3.920       0.1530E-2     1.167   
   -3.910       0.1533E-2     1.167   
   -3.900       0.1536E-2     1.167   
   -3.890       0.1539E-2     1.167   
   -3.880       0.1542E-2     1.168   
   -3.870       0.1545E-2     1.168   
   -3.860       0.1548E-2     1.168   
   -3.850       0.1551E-2     1.168   
   -3.840       0.1554E-2     1.168   
   -3.830       0.1557E-2     1.168   
   -3.820       0.1560E-2     1.168   
   -3.810       0.1563E-2     1.169   
   -3.800       0.1566E-2     1.169   
   -3.790       0.1569E-2     1.169   
   -3.780       0.1572E-2     1.169   
   -3.770       0.1575E-2     1.169   
   -3.760       0.1578E-2     1.169   
   -3.750       0.1581E-2     1.170   
   -3.740       0.1584E-2     1.170   
   -3.730       0.1587E-2     1.170   
   -3.720       0.1590E-2     1.170   
   -3.710       0.1593E-2     1.170   
   -3.700       0.1596E-2     1.170   
   -3.690       0.1600E-2     1.171   
   -3.680       0.1603E-2     1.171   
   -3.670       0.1606E-2     1.171   
   -3.660       0.1609E-2     1.171   
   -3.650       0.1612E-2     1.171   
   -3.640       0.1615E-2     1.171   
   -3.630       0.1619E-2     1.172   
   -3.620       0.1622E-2     1.172   
   -3.610       0.1625E-2     1.172   
   -3.600       0.1628E-2     1.172   
   -3.590       0.1631E-2     1.172   
   -3.580       0.1635E-2     1.172   
   -3.570       0.1638E-2     1.172   
   -3.560       0.1641E-2     1.173   
   -3.550       0.1644E-2     1.173   
   -3.540       0.1648E-2     1.173   
   -3.530       0.1651E-2     1.173   
   -3.520       0.1654E-2     1.173   
   -3.510       0.1658E-2     1.173   
   -3.500       0.1661E-2     1.174   
   -3.490       0.1664E-2     1.174   
   -3.480       0.1668E-2     1.174   
   -3.470       0.1671E-2     1.174   
   -3.460       0.1674E-2     1.174   
   -3.450       0.1678E-2     1.174   
   -3.440       0.1681E-2     1.175   
   -3.430       0.1685E-2     1.175   
   -3.420       0.1688E-2     1.175   
   -3.410       0.1691E-2     1.175   
   -3.400       0.1695E-2     1.175   
   -3.390       0.1698E-2     1.175   
   -3.380       0.1702E-2     1.176   
   -3.370       0.1705E-2     1.176   
   -3.360       0.1709E-2     1.176   
   -3.350       0.1712E-2     1.176   
   -3.340       0.1716E-2     1.176   
   -3.330       0.1719E-2     1.177   
   -3.320       0.1723E-2     1.177   
   -3.310       0.1726E-2     1.177   
   -3.300       0.1730E-2     1.177   
   -3.290       0.1733E-2     1.177   
   -3.280       0.1737E-2     1.177   
   -3.270       0.1740E-2     1.178   
   -3.260       0.1744E-2     1.178   
   -3.250       0.1748E-2     1.178   
   -3.240       0.1751E-2     1.178   
   -3.230       0.1755E-2     1.178   
   -3.220       0.1758E-2     1.178   
   -3.210       0.1762E-2     1.179   
   -3.200       0.1766E-2     1.179   
   -3.190       0.1769E-2     1.179   
   -3.180       0.1773E-2     1.179   
   -3.170       0.1777E-2     1.179   
   -3.160       0.1780E-2     1.179   
   -3.150       0.1784E-2     1.180   
   -3.140       0.1788E-2     1.180   
   -3.130       0.1792E-2     1.180   
   -3.120       0.1795E-2     1.180   
   -3.110       0.1799E-2     1.180   
   -3.100       0.1803E-2     1.181   
   -3.090       0.1807E-2     1.181   
   -3.080       0.1810E-2     1.181   
   -3.070       0.1814E-2     1.181   
   -3.060       0.1818E-2     1.181   
   -3.050       0.1822E-2     1.181   
   -3.040       0.1826E-2     1.182   
   -3.030       0.1830E-2     1.182   
   -3.020       0.1833E-2     1.182   
   -3.010       0.1837E-2     1.182   
   -3.000       0.1841E-2     1.182   
   -2.990       0.1845E-2     1.183   
   -2.980       0.1849E-2     1.183   
   -2.970       0.1853E-2     1.183   
   -2.960       0.1857E-2     1.183   
   -2.950       0.1861E-2     1.183   
   -2.940       0.1865E-2     1.183   
   -2.930       0.1869E-2     1.184   
   -2.920       0.1873E-2     1.184   
   -2.910       0.1877E-2     1.184   
   -2.900       0.1881E-2     1.184   
   -2.890       0.1885E-2     1.184   
   -2.880       0.1889E-2     1.185   
   -2.870       0.1893E-2     1.185   
   -2.860       0.1897E-2     1.185   
   -2.850       0.1901E-2     1.185   
   -2.840       0.1905E-2     1.185   
   -2.830       0.1910E-2     1.186   
   -2.820       0.1914E-2     1.186   
   -2.810       0.1918E-2     1.186   
   -2.800       0.1922E-2     1.186   
   -2.790       0.1926E-2     1.186   
   -2.780       0.1930E-2     1.187   
   -2.770       0.1935E-2     1.187   
   -2.760       0.1939E-2     1.187   
   -2.750       0.1943E-2     1.187   
   -2.740       0.1947E-2     1.187   
   -2.730       0.1952E-2     1.187   
   -2.720       0.1956E-2     1.188   
   -2.710       0.1960E-2     1.188   
   -2.700       0.1964E-2     1.188   
   -2.690       0.1969E-2     1.188   
   -2.680       0.1973E-2     1.188   
   -2.670       0.1978E-2     1.189   
   -2.660       0.1982E-2     1.189   
   -2.650       0.1986E-2     1.189   
   -2.640       0.1991E-2     1.189   
   -2.630       0.1995E-2     1.189   
   -2.620       0.2000E-2     1.190   
   -2.610       0.2004E-2     1.190   
   -2.600       0.2008E-2     1.190   
   -2.590       0.2013E-2     1.190   
   -2.580       0.2017E-2     1.190   
   -2.570       0.2022E-2     1.191   
   -2.560       0.2026E-2     1.191   
   -2.550       0.2031E-2     1.191   
   -2.540       0.2036E-2     1.191   
   -2.530       0.2040E-2     1.191   
   -2.520       0.2045E-2     1.192   
   -2.510       0.2049E-2     1.192   
   -2.500       0.2054E-2     1.192   
   -2.490       0.2059E-2     1.192   
   -2.480       0.2063E-2     1.193   
   -2.470       0.2068E-2     1.193   
   -2.460       0.2073E-2     1.193   
   -2.450       0.2077E-2     1.193   
   -2.440       0.2082E-2     1.193   
   -2.430       0.2087E-2     1.194   
   -2.420       0.2092E-2     1.194   
   -2.410       0.2096E-2     1.194   
   -2.400       0.2101E-2     1.194   
   -2.390       0.2106E-2     1.194   
   -2.380       0.2111E-2     1.195   
   -2.370       0.2116E-2     1.195   
   -2.360       0.2120E-2     1.195   
   -2.350       0.2125E-2     1.195   
   -2.340       0.2130E-2     1.195   
   -2.330       0.2135E-2     1.196   
   -2.320       0.2140E-2     1.196   
   -2.310       0.2145E-2     1.196   
   -2.300       0.2150E-2     1.196   
   -2.290       0.2155E-2     1.197   
   -2.280       0.2160E-2     1.197   
   -2.270       0.2165E-2     1.197   
   -2.260       0.2170E-2     1.197   
   -2.250       0.2175E-2     1.197   
   -2.240       0.2180E-2     1.198   
   -2.230       0.2185E-2     1.198   
   -2.220       0.2190E-2     1.198   
   -2.210       0.2195E-2     1.198   
     -2.2000       0.0022       1.1985
     -2.1900       0.0022       1.1987
     -2.1800       0.0022       1.1989
     -2.1700       0.0022       1.1991
     -2.1600       0.0022       1.1994
     -2.1500       0.0022       1.1996
     -2.1400       0.0022       1.1998
     -2.1300       0.0022       1.2000
     -2.1200       0.0022       1.2003
     -2.1100       0.0022       1.2005
     -2.1000       0.0023       1.2007
     -2.0900       0.0023       1.2009
     -2.0800       0.0023       1.2012
     -2.0700       0.0023       1.2014
     -2.0600       0.0023       1.2016
     -2.0500       0.0023       1.2018
     -2.0400       0.0023       1.2021
     -2.0300       0.0023       1.2023
     -2.0200       0.0023       1.2025
     -2.0100       0.0023       1.2028
     -2.0000       0.0023       1.2030
     -1.9900       0.0023       1.2032
     -1.9800       0.0023       1.2034
     -1.9700       0.0023       1.2037
     -1.9600       0.0023       1.2039
     -1.9500       0.0023       1.2041
     -1.9400       0.0023       1.2044
     -1.9300       0.0023       1.2046
     -1.9200       0.0024       1.2048
     -1.9100       0.0024       1.2051
     -1.9000       0.0024       1.2053
     -1.8900       0.0024       1.2056
     -1.8800       0.0024       1.2058
     -1.8700       0.0024       1.2060
     -1.8600       0.0024       1.2063
     -1.8500       0.0024       1.2065
     -1.8400       0.0024       1.2067
     -1.8300       0.0024       1.2070
     -1.8200       0.0024       1.2072
     -1.8100       0.0024       1.2075
     -1.8000       0.0024       1.2077
     -1.7900       0.0024       1.2080
     -1.7800       0.0024       1.2082
     -1.7700       0.0024       1.2084
     -1.7600       0.0024       1.2087
     -1.7500       0.0025       1.2089
     -1.7400       0.0025       1.2092
     -1.7300       0.0025       1.2094
     -1.7200       0.0025       1.2097
     -1.7100       0.0025       1.2099
     -1.7000       0.0025       1.2102
     -1.6900       0.0025       1.2104
     -1.6800       0.0025       1.2107
     -1.6700       0.0025       1.2109
     -1.6600       0.0025       1.2112
     -1.6500       0.0025       1.2114
     -1.6400       0.0025       1.2117
     -1.6300       0.0025       1.2119
     -1.6200       0.0025       1.2122
     -1.6100       0.0025       1.2124
     -1.6000       0.0025       1.2127
     -1.5900       0.0026       1.2129
     -1.5800       0.0026       1.2132
     -1.5700       0.0026       1.2134
     -1.5600       0.0026       1.2137
     -1.5500       0.0026       1.2140
     -1.5400       0.0026       1.2142
     -1.5300       0.0026       1.2145
     -1.5200       0.0026       1.2147
     -1.5100       0.0026       1.2150
     -1.5000       0.0026       1.2153
     -1.4900       0.0026       1.2155
     -1.4800       0.0026       1.2158
     -1.4700       0.0026       1.2160
     -1.4600       0.0026       1.2163
     -1.4500       0.0026       1.2166
     -1.4400       0.0027       1.2168
     -1.4300       0.0027       1.2171
     -1.4200       0.0027       1.2174
     -1.4100       0.0027       1.2176
     -1.4000       0.0027       1.2179
     -1.3900       0.0027       1.2182
     -1.3800       0.0027       1.2184
     -1.3700       0.0027       1.2187
     -1.3600       0.0027       1.2190
     -1.3500       0.0027       1.2193
     -1.3400       0.0027       1.2195
     -1.3300       0.0027       1.2198
     -1.3200       0.0027       1.2201
     -1.3100       0.0027       1.2204
     -1.3000       0.0028       1.2206
     -1.2900       0.0028       1.2209
     -1.2800       0.0028       1.2212
     -1.2700       0.0028       1.2215
     -1.2600       0.0028       1.2217
     -1.2500       0.0028       1.2220
     -1.2400       0.0028       1.2223
     -1.2300       0.0028       1.2226
     -1.2200       0.0028       1.2229
     -1.2100       0.0028       1.2231
     -1.2000       0.0028       1.2234
     -1.1900       0.0028       1.2237
     -1.1800       0.0028       1.2240
     -1.1700       0.0029       1.2243
     -1.1600       0.0029       1.2246
     -1.1500       0.0029       1.2248
     -1.1400       0.0029       1.2251
     -1.1300       0.0029       1.2254
     -1.1200       0.0029       1.2257
     -1.1100       0.0029       1.2260
     -1.1000       0.0029       1.2263
     -1.0900       0.0029       1.2266
     -1.0800       0.0029       1.2269
     -1.0700       0.0029       1.2272
     -1.0600       0.0029       1.2275
     -1.0500       0.0029       1.2277
     -1.0400       0.0030       1.2280
     -1.0300       0.0030       1.2283
     -1.0200       0.0030       1.2286
     -1.0100       0.0030       1.2289
     -1.0000       0.0030       1.2292
     -0.9900       0.0030       1.2295
     -0.9800       0.0030       1.2298
     -0.9700       0.0030       1.2301
     -0.9600       0.0030       1.2304
     -0.9500       0.0030       1.2307
     -0.9400       0.0030       1.2310
     -0.9300       0.0030       1.2313
     -0.9200       0.0031       1.2317
     -0.9100       0.0031       1.2320
     -0.9000       0.0031       1.2323
     -0.8900       0.0031       1.2326
     -0.8800       0.0031       1.2329
     -0.8700       0.0031       1.2332
     -0.8600       0.0031       1.2335
     -0.8500       0.0031       1.2338
     -0.8400       0.0031       1.2341
     -0.8300       0.0031       1.2344
     -0.8200       0.0031       1.2348
     -0.8100       0.0032       1.2351
     -0.8000       0.0032       1.2354
     -0.7900       0.0032       1.2357
     -0.7800       0.0032       1.2360
     -0.7700       0.0032       1.2363
     -0.7600       0.0032       1.2367
     -0.7500       0.0032       1.2370
     -0.7400       0.0032       1.2373
     -0.7300       0.0032       1.2376
     -0.7200       0.0032       1.2379
     -0.7100       0.0032       1.2383
     -0.7000       0.0033       1.2386
     -0.6900       0.0033       1.2389
     -0.6800       0.0033       1.2392
     -0.6700       0.0033       1.2396
     -0.6600       0.0033       1.2399
     -0.6500       0.0033       1.2402
     -0.6400       0.0033       1.2406
     -0.6300       0.0033       1.2409
     -0.6200       0.0033       1.2412
     -0.6100       0.0033       1.2416
     -0.6000       0.0034       1.2419
     -0.5900       0.0034       1.2422
     -0.5800       0.0034       1.2426
     -0.5700       0.0034       1.2429
     -0.5600       0.0034       1.2432
     -0.5500       0.0034       1.2436
     -0.5400       0.0034       1.2439
     -0.5300       0.0034       1.2443
     -0.5200       0.0034       1.2446
     -0.5100       0.0034       1.2450
     -0.5000       0.0035       1.2453
     -0.4900       0.0035       1.2456
     -0.4800       0.0035       1.2460
     -0.4700       0.0035       1.2463
     -0.4600       0.0035       1.2467
     -0.4500       0.0035       1.2470
     -0.4400       0.0035       1.2474
     -0.4300       0.0035       1.2477
     -0.4200       0.0035       1.2481
     -0.4100       0.0036       1.2485
     -0.4000       0.0036       1.2488
     -0.3900       0.0036       1.2492
     -0.3800       0.0036       1.2495
     -0.3700       0.0036       1.2499
     -0.3600       0.0036       1.2502
     -0.3500       0.0036       1.2506
     -0.3400       0.0036       1.2510
     -0.3300       0.0036       1.2513
     -0.3200       0.0037       1.2517
     -0.3100       0.0037       1.2521
     -0.3000       0.0037       1.2524
     -0.2900       0.0037       1.2528
     -0.2800       0.0037       1.2532
     -0.2700       0.0037       1.2535
     -0.2600       0.0037       1.2539
     -0.2500       0.0037       1.2543
     -0.2400       0.0038       1.2547
     -0.2300       0.0038       1.2550
     -0.2200       0.0038       1.2554
     -0.2100       0.0038       1.2558
     -0.2000       0.0038       1.2562
     -0.1900       0.0038       1.2566
     -0.1800       0.0038       1.2569
     -0.1700       0.0038       1.2573
     -0.1600       0.0038       1.2577
     -0.1500       0.0039       1.2581
     -0.1400       0.0039       1.2585
     -0.1300       0.0039       1.2589
     -0.1200       0.0039       1.2592
     -0.1100       0.0039       1.2596
     -0.1000       0.0039       1.2600
     -0.0900       0.0039       1.2604
     -0.0800       0.0040       1.2608
     -0.0700       0.0040       1.2612
     -0.0600       0.0040       1.2616
     -0.0500       0.0040       1.2620
     -0.0400       0.0040       1.2624
     -0.0300       0.0040       1.2628
     -0.0200       0.0040       1.2632
     -0.0100       0.0040       1.2636
      0.0000       0.0041       1.2640
      0.0100       0.0041       1.2644
      0.0200       0.0041       1.2648
      0.0300       0.0041       1.2652
      0.0400       0.0041       1.2657
      0.0500       0.0041       1.2661
      0.0600       0.0041       1.2665
      0.0700       0.0042       1.2669
      0.0800       0.0042       1.2673
      0.0900       0.0042       1.2677
      0.1000       0.0042       1.2681
      0.1100       0.0042       1.2686
      0.1200       0.0042       1.2690
      0.1300       0.0042       1.2694
      0.1400       0.0043       1.2698
      0.1500       0.0043       1.2703
      0.1600       0.0043       1.2707
      0.1700       0.0043       1.2711
      0.1800       0.0043       1.2715
      0.1900       0.0043       1.2720
      0.2000       0.0043       1.2724
      0.2100       0.0044       1.2728
      0.2200       0.0044       1.2733
      0.2300       0.0044       1.2737
      0.2400       0.0044       1.2742
      0.2500       0.0044       1.2746
      0.2600       0.0044       1.2750
      0.2700       0.0045       1.2755
      0.2800       0.0045       1.2759
      0.2900       0.0045       1.2764
      0.3000       0.0045       1.2768
      0.3100       0.0045       1.2773
      0.3200       0.0045       1.2777
      0.3300       0.0045       1.2782
      0.3400       0.0046       1.2786
      0.3500       0.0046       1.2791
      0.3600       0.0046       1.2795
      0.3700       0.0046       1.2800
      0.3800       0.0046       1.2805
      0.3900       0.0046       1.2809
      0.4000       0.0047       1.2814
      0.4100       0.0047       1.2819
      0.4200       0.0047       1.2823
      0.4300       0.0047       1.2828
      0.4400       0.0047       1.2833
      0.4500       0.0047       1.2837
      0.4600       0.0048       1.2842
      0.4700       0.0048       1.2847
      0.4800       0.0048       1.2852
      0.4900       0.0048       1.2857
      0.5000       0.0048       1.2861
      0.5100       0.0049       1.2866
      0.5200       0.0049       1.2871
      0.5300       0.0049       1.2876
      0.5400       0.0049       1.2881
      0.5500       0.0049       1.2886
      0.5600       0.0049       1.2891
      0.5700       0.0050       1.2896
      0.5800       0.0050       1.2901
      0.5900       0.0050       1.2906
      0.6000       0.0050       1.2911
      0.6100       0.0050       1.2916
      0.6200       0.0051       1.2921
      0.6300       0.0051       1.2926
      0.6400       0.0051       1.2931
      0.6500       0.0051       1.2936
      0.6600       0.0051       1.2941
      0.6700       0.0052       1.2946
      0.6800       0.0052       1.2951
      0.6900       0.0052       1.2957
      0.7000       0.0052       1.2962
      0.7100       0.0052       1.2967
      0.7200       0.0053       1.2972
      0.7300       0.0053       1.2978
      0.7400       0.0053       1.2983
      0.7500       0.0053       1.2988
      0.7600       0.0053       1.2993
      0.7700       0.0054       1.2999
      0.7800       0.0054       1.3004
      0.7900       0.0054       1.3010
      0.8000       0.0054       1.3015
      0.8100       0.0054       1.3020
      0.8200       0.0055       1.3026
      0.8300       0.0055       1.3031
      0.8400       0.0055       1.3037
      0.8500       0.0055       1.3042
      0.8600       0.0056       1.3048
      0.8700       0.0056       1.3053
      0.8800       0.0056       1.3059
      0.8900       0.0056       1.3065
      0.9000       0.0056       1.3070
      0.9100       0.0057       1.3076
      0.9200       0.0057       1.3082
      0.9300       0.0057       1.3087
      0.9400       0.0057       1.3093
      0.9500       0.0058       1.3099
      0.9600       0.0058       1.3105
      0.9700       0.0058       1.3110
      0.9800       0.0058       1.3116
      0.9900       0.0059       1.3122
      1.0000       0.0059       1.3128
      1.0100       0.0059       1.3134
      1.0200       0.0059       1.3140
      1.0300       0.0060       1.3146
      1.0400       0.0060       1.3152
      1.0500       0.0060       1.3158
      1.0600       0.0060       1.3164
      1.0700       0.0061       1.3170
      1.0800       0.0061       1.3176
      1.0900       0.0061       1.3182
      1.1000       0.0061       1.3188
      1.1100       0.0062       1.3194
      1.1200       0.0062       1.3200
      1.1300       0.0062       1.3207
      1.1400       0.0062       1.3213
      1.1500       0.0063       1.3219
      1.1600       0.0063       1.3225
      1.1700       0.0063       1.3232
      1.1800       0.0064       1.3238
      1.1900       0.0064       1.3244
      1.2000       0.0064       1.3251
      1.2100       0.0064       1.3257
      1.2200       0.0065       1.3264
      1.2300       0.0065       1.3270
      1.2400       0.0065       1.3277
      1.2500       0.0066       1.3283
      1.2600       0.0066       1.3290
      1.2700       0.0066       1.3296
      1.2800       0.0066       1.3303
      1.2900       0.0067       1.3310
      1.3000       0.0067       1.3316
      1.3100       0.0067       1.3323
      1.3200       0.0068       1.3330
      1.3300       0.0068       1.3337
      1.3400       0.0068       1.3343
      1.3500       0.0069       1.3350
      1.3600       0.0069       1.3357
      1.3700       0.0069       1.3364
      1.3800       0.0070       1.3371
      1.3900       0.0070       1.3378
      1.4000       0.0070       1.3385
      1.4100       0.0071       1.3392
      1.4200       0.0071       1.3399
      1.4300       0.0071       1.3406
      1.4400       0.0072       1.3413
      1.4500       0.0072       1.3420
      1.4600       0.0072       1.3428
      1.4700       0.0073       1.3435
      1.4800       0.0073       1.3442
      1.4900       0.0073       1.3449
      1.5000       0.0074       1.3457
      1.5100       0.0074       1.3464
      1.5200       0.0074       1.3471
      1.5300       0.0075       1.3479
      1.5400       0.0075       1.3486
      1.5500       0.0075       1.3494
      1.5600       0.0076       1.3501
      1.5700       0.0076       1.3509
      1.5800       0.0077       1.3517
      1.5900       0.0077       1.3524
      1.6000       0.0077       1.3532
      1.6100       0.0078       1.3540
      1.6200       0.0078       1.3548
      1.6300       0.0079       1.3555
      1.6400       0.0079       1.3563
      1.6500       0.0079       1.3571
      1.6600       0.0080       1.3579
      1.6700       0.0080       1.3587
      1.6800       0.0081       1.3595
      1.6900       0.0081       1.3603
      1.7000       0.0081       1.3611
      1.7100       0.0082       1.3619
      1.7200       0.0082       1.3628
      1.7300       0.0083       1.3636
      1.7400       0.0083       1.3644
      1.7500       0.0083       1.3652
      1.7600       0.0084       1.3661
      1.7700       0.0084       1.3669
      1.7800       0.0085       1.3678
      1.7900       0.0085       1.3686
      1.8000       0.0086       1.3695
      1.8100       0.0086       1.3703
      1.8200       0.0087       1.3712
      1.8300       0.0087       1.3720
      1.8400       0.0088       1.3729
      1.8500       0.0088       1.3738
      1.8600       0.0088       1.3747
      1.8700       0.0089       1.3756
      1.8800       0.0089       1.3765
      1.8900       0.0090       1.3773
      1.9000       0.0090       1.3782
      1.9100       0.0091       1.3792
      1.9200       0.0091       1.3801
      1.9300       0.0092       1.3810
      1.9400       0.0092       1.3819
      1.9500       0.0093       1.3828
      1.9600       0.0093       1.3838
      1.9700       0.0094       1.3847
      1.9800       0.0095       1.3856
      1.9900       0.0095       1.3866
      2.0000       0.0096       1.3875
      2.0100       0.0096       1.3885
      2.0200       0.0097       1.3894
      2.0300       0.0097       1.3904
      2.0400       0.0098       1.3914
      2.0500       0.0098       1.3924
      2.0600       0.0099       1.3934
      2.0700       0.0100       1.3943
     2.08000      0.01001      1.39534
     2.09000      0.01007      1.39634
     2.10000      0.01013      1.39735
     2.11000      0.01019      1.39837
     2.12000      0.01025      1.39939
     2.13000      0.01031      1.40041
     2.14000      0.01037      1.40144
     2.15000      0.01043      1.40248
     2.16000      0.01050      1.40353
     2.17000      0.01056      1.40458
     2.18000      0.01063      1.40563
     2.19000      0.01069      1.40670
     2.20000      0.01076      1.40777
     2.21000      0.01082      1.40884
     2.22000      0.01089      1.40993
     2.23000      0.01096      1.41102
     2.24000      0.01102      1.41211
     2.25000      0.01109      1.41322
     2.26000      0.01116      1.41433
     2.27000      0.01123      1.41545
     2.28000      0.01130      1.41657
     2.29000      0.01138      1.41770
     2.30000      0.01145      1.41884
     2.31000      0.01152      1.41999
     2.32000      0.01160      1.42114
     2.33000      0.01167      1.42230
     2.34000      0.01175      1.42347
     2.35000      0.01182      1.42464
     2.36000      0.01190      1.42583
     2.37000      0.01198      1.42702
     2.38000      0.01206      1.42822
     2.39000      0.01214      1.42943
     2.40000      0.01222      1.43064
     2.41000      0.01230      1.43186
     2.42000      0.01238      1.43309
     2.43000      0.01247      1.43433
     2.44000      0.01255      1.43558
     2.45000      0.01264      1.43684
     2.46000      0.01272      1.43810
     2.47000      0.01281      1.43938
     2.48000      0.01290      1.44066
     2.49000      0.01299      1.44195
     2.50000      0.01308      1.44325
     2.51000      0.01317      1.44456
     2.52000      0.01327      1.44588
     2.53000      0.01336      1.44720
     2.54000      0.01345      1.44854
     2.55000      0.01355      1.44989
     2.56000      0.01365      1.45124
     2.57000      0.01375      1.45261
     2.58000      0.01385      1.45399
     2.59000      0.01395      1.45537
     2.60000      0.01405      1.45677
     2.61000      0.01415      1.45817
     2.62000      0.01426      1.45959
     2.63000      0.01436      1.46101
     2.64000      0.01447      1.46245
     2.65000      0.01458      1.46390
     2.66000      0.01469      1.46536
     2.67000      0.01480      1.46683
     2.68000      0.01491      1.46831
     2.69000      0.01502      1.46980
     2.70000      0.01514      1.47130
     2.71000      0.01526      1.47282
     2.72000      0.01538      1.47434
     2.73000      0.01550      1.47588
     2.74000      0.01562      1.47743
     2.75000      0.01574      1.47900
     2.76000      0.01587      1.48057
     2.77000      0.01599      1.48216
     2.78000      0.01612      1.48376
     2.79000      0.01625      1.48537
     2.80000      0.01638      1.48700
     2.81000      0.01652      1.48864
     2.82000      0.01665      1.49029
     2.83000      0.01679      1.49195
     2.84000      0.01693      1.49363
     2.85000      0.01707      1.49533
     2.86000      0.01721      1.49703
     2.87000      0.01736      1.49875
     2.88000      0.01750      1.50049
     2.89000      0.01765      1.50224
     2.90000      0.01781      1.50401
     2.91000      0.01796      1.50579
     2.92000      0.01812      1.50758
     2.93000      0.01827      1.50940
     2.94000      0.01843      1.51122
     2.95000      0.01860      1.51307
     2.96000      0.01876      1.51493
     2.97000      0.01893      1.51680
     2.98000      0.01910      1.51870
     2.99000      0.01927      1.52061
     3.00000      0.01945      1.52253
     3.01000      0.01963      1.52448
     3.02000      0.01981      1.52644
     3.03000      0.01999      1.52842
     3.04000      0.02018      1.53042
     3.05000      0.02037      1.53244
     3.06000      0.02056      1.53447
     3.07000      0.02076      1.53653
     3.08000      0.02096      1.53860
     3.09000      0.02116      1.54070
     3.10000      0.02137      1.54281
     3.11000      0.02157      1.54495
     3.12000      0.02179      1.54710
     3.13000      0.02200      1.54928
     3.14000      0.02222      1.55148
     3.15000      0.02245      1.55370
     3.16000      0.02267      1.55594
     3.17000      0.02291      1.55821
     3.18000      0.02314      1.56050
     3.19000      0.02338      1.56281
     3.20000      0.02362      1.56515
     3.21000      0.02387      1.56751
     3.22000      0.02412      1.56989
     3.23000      0.02438      1.57230
     3.24000      0.02464      1.57474
     3.25000      0.02491      1.57720
     3.26000      0.02518      1.57969
     3.27000      0.02546      1.58220
     3.28000      0.02574      1.58474
     3.29000      0.02602      1.58731
     3.30000      0.02632      1.58991
     3.31000      0.02661      1.59254
     3.32000      0.02692      1.59519
     3.33000      0.02723      1.59788
     3.34000      0.02754      1.60060
     3.35000      0.02787      1.60335
     3.36000      0.02819      1.60613
     3.37000      0.02853      1.60894
     3.38000      0.02887      1.61179
     3.39000      0.02922      1.61467
     3.40000      0.02957      1.61759
     3.41000      0.02994      1.62054
     3.42000      0.03031      1.62352
     3.43000      0.03069      1.62655
     3.44000      0.03107      1.62961
     3.45000      0.03147      1.63270
     3.46000      0.03187      1.63584
     3.47000      0.03229      1.63902
     3.48000      0.03271      1.64224
     3.49000      0.03314      1.64550
     3.50000      0.03358      1.64880
     3.51000      0.03403      1.65215
     3.52000      0.03449      1.65554
     3.53000      0.03496      1.65897
     3.54000      0.03545      1.66246
     3.55000      0.03594      1.66599
     3.56000      0.03645      1.66956
     3.57000      0.03697      1.67319
     3.58000      0.03750      1.67687
     3.59000      0.03804      1.68061
     3.60000      0.03860      1.68439
     3.61000      0.03917      1.68823
     3.62000      0.03976      1.69213
     3.63000      0.04036      1.69608
     3.64000      0.04097      1.70010
     3.65000      0.04161      1.70417
     3.66000      0.04226      1.70830
     3.67000      0.04292      1.71250
     3.68000      0.04361      1.71677
     3.69000      0.04431      1.72110
     3.70000      0.04504      1.72550
     3.71000      0.04578      1.72997
     3.72000      0.04654      1.73452
     3.73000      0.04733      1.73913
     3.74000      0.04814      1.74383
     3.75000      0.04897      1.74860
     3.76000      0.04983      1.75346
     3.77000      0.05071      1.75839
     3.78000      0.05162      1.76342
     3.79000      0.05256      1.76853
     3.80000      0.05352      1.77373
     3.81000      0.05452      1.77903
     3.82000      0.05555      1.78442
     3.83000      0.05661      1.78992
     3.84000      0.05770      1.79551
     3.85000      0.05883      1.80121
     3.86000      0.06000      1.80702
     3.87000      0.06121      1.81295
     3.88000      0.06246      1.81899
     3.89000      0.06376      1.82514
     3.90000      0.06509      1.83143
     3.91000      0.06648      1.83784
     3.92000      0.06792      1.84438
     3.93000      0.06941      1.85107
     3.94000      0.07095      1.85789
     3.95000      0.07256      1.86486
     3.96000      0.07422      1.87199
     3.97000      0.07595      1.87927
     3.98000      0.07775      1.88671
     3.99000      0.07962      1.89433
     4.00000      0.08157      1.90212
     4.01000      0.08359      1.91009
     4.02000      0.08570      1.91826
     4.03000      0.08790      1.92662
     4.04000      0.09020      1.93519
     4.05000      0.09260      1.94397
     4.06000      0.09510      1.95297
     4.07000      0.09772      1.96221
    4.080000     0.100454     1.971687
    4.090001     0.103320     1.981417
    4.100000     0.106323     1.991408
    4.110001     0.109472     2.001676
    4.120000     0.112776     2.012228
    4.130001     0.116247     2.023081
    4.140000     0.119895     2.034245
    4.150001     0.123734     2.045739
    4.160000     0.127777     2.057573
    4.170001     0.132040     2.069768
    4.180000     0.136537     2.082338
    4.190001     0.141288     2.095304
    4.200000     0.146312     2.108682
    4.210001     0.151631     2.122498
    4.219999     0.157267     2.136768
    4.230000     0.163248     2.151520
    4.239999     0.169601     2.166776
    4.250000     0.176361     2.182565
    4.259999     0.183559     2.198911
    4.270000     0.191238     2.215850
    4.280001     0.199439     2.233409
    4.290000     0.208210     2.251621
    4.300001     0.217608     2.270525
    4.310000     0.227690     2.290155
    4.320001     0.238527     2.310555
    4.330000     0.250192     2.331762
    4.340001     0.262774     2.353824
    4.350000     0.276367     2.376782
    4.360001     0.291082     2.400689
    4.370000     0.307041     2.425585
    4.380001     0.324388     2.451529
    4.390000     0.343278     2.478558
    4.400001     0.363901     2.506730
    4.410000     0.386458     2.536079
    4.420001     0.411197     2.566652
    4.430000     0.438382     2.598469
    4.440001     0.468340     2.631555
    4.450000     0.501420     2.665896
    4.460001     0.538051     2.701473
    4.470000     0.578697     2.738203
    4.480000     0.623920     2.775978
    4.490000     0.674329     2.814588
    4.500000     0.730649     2.853755
    4.510000     0.793658     2.893042
    4.520000     0.864258     2.931861
    4.530000     0.943382     2.969373
    4.540000     1.032053     3.004466
    4.550000     1.131235     3.035634
    4.560000     1.241848     3.060936
    4.570000     1.364498     3.077888
    4.580000     1.499414     3.083453
    4.590000     1.646014     3.074051
    4.600000     1.802760     3.045736
    4.610000     1.966669     2.994546
    4.620000     2.133351     2.917017
    4.630001     2.296940     2.810922
    4.640000     2.450696     2.675910
    4.650001     2.587950     2.513719
    4.660000     2.702870     2.328096
    4.670001     2.791224     2.123829
    4.680000     2.850179     1.906125
    4.690001     2.877841     1.679916
    4.700000     2.872651     1.450364
    4.710001     2.833437     1.223185
    4.720000     2.760159     1.005300
    4.730001     2.654815     0.804143
    4.740000     2.522067     0.626802
    4.750001     2.368765     0.478425
    4.760000     2.203027     0.361578
    4.770001     2.032728     0.275950
    4.780000     1.864665     0.219068
    4.790001     1.703804     0.187048
    4.800000     1.553450     0.175502
    4.810000     1.415290     0.180111
    4.820000     1.289953     0.197003
    4.830000     1.177203     0.222919
    4.840000     1.076403     0.255208
    4.850000     0.986594     0.291808
    4.860000     0.906773     0.331118
    4.870000     0.835880     0.371958
    4.880000     0.772949     0.413429
    4.890000     0.717052     0.454896
    4.900000     0.667389     0.495878
    4.910000     0.623211     0.536050
    4.920000     0.583884     0.575159
    4.930000     0.548818     0.613045
    4.940000     0.517507     0.649577
    4.950000     0.489466     0.684689
    4.960000     0.464267     0.718324
    4.970000     0.441489     0.750492
    4.980000     0.420759     0.781223
    4.990000     0.401720     0.810621
    5.000001     0.384079     0.838818
    5.010000     0.367609     0.865985
    5.020001     0.352149     0.892314
    5.030000     0.337618     0.917965
    5.040001     0.323974     0.943079
    5.050000     0.311216     0.967737
    5.060001     0.299339     0.991997
    5.070000     0.288340     1.015874
    5.080001     0.278197     1.039378
    5.090000     0.268884     1.062500
    5.100001     0.260357     1.085244
    5.110000     0.252573     1.107603
    5.120001     0.245482     1.129590
    5.130000     0.239038     1.151207
    5.140001     0.233196     1.172475
    5.150000     0.227913     1.193406
    5.160001     0.223150     1.214025
    5.170000     0.218872     1.234349
    5.180001     0.215049     1.254405
    5.190000     0.211653     1.274212
    5.200001     0.208660     1.293799
    5.210000     0.206049     1.313184
    5.220001     0.203802     1.332397
    5.230000     0.201904     1.351456
    5.240001     0.200341     1.370390
    5.250000     0.199105     1.389215
    5.260001     0.198187     1.407960
    5.270000     0.197582     1.426641
    5.280000     0.197285     1.445287
    5.289999     0.197296     1.463913
    5.300000     0.197616     1.482545
    5.309999     0.198248     1.501198
    5.320000     0.199197     1.519898
    5.329999     0.200472     1.538658
    5.340000     0.202082     1.557502
    5.349999     0.204043     1.576442
    5.360000     0.206369     1.595499
    5.370001     0.209082     1.614684
    5.380000     0.212203     1.634004
    5.390001     0.215760     1.653472
    5.400000     0.219781     1.673083
    5.410001     0.224301     1.692839
    5.420000     0.229352     1.712720
    5.430001     0.234969     1.732707
    5.440000     0.241182     1.752755
    5.450001     0.248014     1.772818
    5.460000     0.255470     1.792820
    5.470001     0.263533     1.812684
    5.480000     0.272146     1.832314
    5.490001     0.281209     1.851633
    5.500000     0.290568     1.870581
    5.510001     0.300025     1.889165
    5.520000     0.309356     1.907470
    5.530001     0.318359     1.925691
    5.540000     0.326893     1.944104
    5.550001     0.334930     1.963055
    5.560000     0.342558     1.982880
    5.570001     0.349974     2.003881
    5.580000     0.357436     2.026267
    5.590001     0.365233     2.050179
    5.600000     0.373641     2.075679
    5.610001     0.382926     2.102791
    5.620000     0.393320     2.131495
    5.630001     0.405039     2.161774
    5.639999     0.418275     2.193584
    5.650001     0.433216     2.226906
    5.659999     0.450035     2.261706
    5.670001     0.468923     2.297982
    5.679999     0.490071     2.335721
    5.690001     0.513704     2.374941
    5.699999     0.540065     2.415639
    5.710001     0.569451     2.457839
    5.719999     0.602185     2.501530
    5.730000     0.638665     2.546715
    5.740001     0.679336     2.593350
    5.750000     0.724710     2.641351
    5.760001     0.775400     2.690606
    5.770000     0.832076     2.740893
    5.780001     0.895537     2.791920
    5.790000     0.966641     2.843221
    5.800001     1.046384     2.894186
    5.810000     1.135796     2.943933
    5.820001     1.236018     2.991310
    5.830000     1.348134     3.034768
    5.840001     1.473228     3.072345
    5.850000     1.612125     3.101545
    5.860001     1.765409     3.119339
    5.870000     1.933061     3.122109
    5.880001     2.114446     3.105678
    5.890000     2.307833     3.065363
    5.900001     2.510294     2.996058
    5.910000     2.717005     2.892560
    5.920001     2.921012     2.750034
    5.930000     3.112602     2.565169
    5.940001     3.279724     2.337461
    5.950000     3.408852     2.071045
    5.960001     3.487381     1.775432
    5.970000     3.506309     1.465487
    5.980000     3.462795     1.159007
    5.990000     3.361099     0.873830
    6.000000     3.211501     0.624196
    6.010000     3.027922     0.419046
    6.020000     2.824835     0.261364
    6.030000     2.615206     0.149466
     6.04000      2.40901      0.07846
     6.05000      2.21326      0.04203
     6.06000      2.03205      0.03355
     6.07000      1.86747      0.04692
     6.08000      1.72003      0.07688
    6.089999     1.589360     0.119117
    6.100000     1.474456     0.170257
    6.110001     1.374127     0.227676
    6.120000     1.287089     0.289398
    6.130001     1.212052     0.353994
    6.140000     1.147869     0.420391
    6.150001     1.093480     0.487869
    6.160000     1.047997     0.555894
    6.170001     1.010642     0.624150
    6.180000     0.980799     0.692403
    6.190001     0.957960     0.760557
    6.200000     0.941753     0.828537
    6.210001     0.931910     0.896354
    6.220000     0.928282     0.964004
    6.230001     0.930823     1.031536
    6.240000     0.939594     1.098951
    6.250000     0.954768     1.166275
    6.260000     0.976620     1.233458
    6.270000     1.005553     1.300436
    6.280000     1.042075     1.367025
    6.290000     1.086845     1.432978
    6.300000     1.140624     1.497852
    6.310000     1.204342     1.561055
    6.320000     1.279011     1.621680
    6.330000     1.365794     1.678523
    6.340000     1.465853     1.729886
    6.350000     1.580375     1.773540
    6.360000     1.710300     1.806531
    6.370000     1.856222     1.825101
    6.380000     2.017889     1.824581
    6.390000     2.193912     1.799442
    6.400000     2.380961     1.743545
    6.410000     2.573384     1.650681
    6.420000     2.762485     1.515675
    6.430000     2.936764     1.335709
    6.440000     3.082505     1.112174
    6.450000     3.185852     0.851742
    6.460001     3.235333     0.566845
    6.470000     3.224718     0.274185
      6.4800       3.1546      -0.0083
    6.490000     3.032444    -0.264443
    6.500001     2.870174    -0.482958
    6.510000     2.681874    -0.658086
    6.520001     2.480828    -0.789438
    6.530000     2.278104    -0.880332
    6.540001     2.081664    -0.936302
    6.550000     1.896744    -0.963595
    6.560001     1.726112    -0.968310
    6.570000     1.570940    -0.955851
    6.580001     1.431146    -0.930744
    6.590000     1.306052    -0.896639
    6.600001     1.194521    -0.856370
    6.610000     1.095330    -0.812130
    6.620001     1.007170    -0.765540
    6.630000     0.928841    -0.717831
    6.640001     0.859182    -0.669884
    6.650000     0.797191    -0.622362
    6.660001     0.741931    -0.575723
    6.670000     0.692605    -0.530320
    6.680001     0.648471    -0.486377
    6.690000     0.608891    -0.444077
    6.700000     0.573261    -0.403515
    6.710000     0.541046    -0.364756
    6.720000     0.511732    -0.327788
    6.730000     0.484871    -0.292560
    6.740000     0.460053    -0.258946
    6.750000     0.436957    -0.226793
    6.760000     0.415329    -0.195900
    6.770000     0.395013    -0.166094
    6.780000     0.375905    -0.137206
    6.789999     0.357960    -0.109132
     6.80000      0.34114     -0.08179
     6.81000      0.32542     -0.05515
     6.82000      0.31076     -0.02920
    6.830       0.2971       -.3922E-2
     6.84000      0.28441      0.02067
     6.85000      0.27260      0.04458
     6.86000      0.26161      0.06782
     6.87000      0.25139      0.09040
    6.880000     0.241872     0.112323
    6.890001     0.232992     0.133626
    6.900000     0.224702     0.154317
    6.910001     0.216952     0.174425
    6.920000     0.209698     0.193968
    6.930001     0.202899     0.212975
    6.940000     0.196521     0.231464
    6.950001     0.190528     0.249464
    6.960000     0.184893     0.266991
    6.970001     0.179588     0.284072
    6.980000     0.174590     0.300725
    6.990001     0.169875     0.316973
    7.000000     0.165427     0.332832
    7.010001     0.161224     0.348324
    7.020000     0.157252     0.363462
    7.030001     0.153496     0.378269
    7.040000     0.149942     0.392755
    7.050001     0.146578     0.406940
    7.060000     0.143392     0.420835
    7.070001     0.140375     0.434457
    7.079999     0.137516     0.447815
    7.090001     0.134807     0.460927
    7.099999     0.132241     0.473800
    7.110001     0.129809     0.486451
    7.119999     0.127505     0.498885
    7.130001     0.125323     0.511117
    7.139999     0.123258     0.523155
    7.150000     0.121303     0.535011
    7.159999     0.119455     0.546690
    7.170000     0.117709     0.558207
    7.179999     0.116060     0.569566
    7.190000     0.114506     0.580778
    7.200001     0.113043     0.591851
    7.210000     0.111668     0.602790
    7.220001     0.110378     0.613607
    7.230000     0.109171     0.624305
    7.240001     0.108044     0.634895
    7.250000     0.106995     0.645382
    7.260001     0.106023     0.655774
    7.270000     0.105127     0.666077
    7.280001     0.104304     0.676299
    7.290000     0.103554     0.686444
    7.300001     0.102876     0.696522
    7.310000     0.102269     0.706536
    7.320001     0.101733     0.716496
    7.330000     0.101268     0.726404
    7.340001     0.100873     0.736271
    7.350000     0.100549     0.746098
    7.360001     0.100296     0.755897
    7.370000     0.100116     0.765669
    7.380001     0.100007     0.775425
     7.39000      0.09997      0.78517
    7.400001     0.100014     0.794906
    7.410000     0.100132     0.804644
    7.420001     0.100329     0.814392
    7.430000     0.100608     0.824153
    7.440001     0.100970     0.833937
    7.450000     0.101419     0.843748
    7.460001     0.101959     0.853597
    7.470000     0.102594     0.863488
    7.480000     0.103327     0.873432
    7.490000     0.104163     0.883434
    7.500000     0.105109     0.893505
    7.510000     0.106171     0.903651
    7.520000     0.107354     0.913883
    7.529999     0.108668     0.924208
    7.540000     0.110120     0.934639
    7.549999     0.111721     0.945182
    7.560000     0.113481     0.955851
    7.570001     0.115412     0.966655
    7.580000     0.117528     0.977605
    7.590001     0.119845     0.988716
    7.600000     0.122379     0.999995
    7.610001     0.125151     1.011460
    7.620000     0.128181     1.023120
    7.630001     0.131495     1.034993
    7.640000     0.135121     1.047089
    7.650001     0.139091     1.059425
    7.660000     0.143441     1.072011
    7.670001     0.148213     1.084866
    7.680000     0.153454     1.097998
    7.690001     0.159219     1.111424
    7.700000     0.165568     1.125149
    7.710001     0.172574     1.139183
    7.720000     0.180316     1.153526
    7.730000     0.188890     1.168178
    7.740000     0.198399     1.183123
    7.750000     0.208969     1.198341
    7.760000     0.220733     1.213787
    7.770000     0.233850     1.229406
    7.780000     0.248489     1.245102
    7.790000     0.264843     1.260755
    7.800000     0.283108     1.276185
    7.810000     0.303497     1.291165
    7.820000     0.326204     1.305389
    7.830000     0.351415     1.318478
    7.840000     0.379258     1.329953
    7.850000     0.409805     1.339257
    7.860000     0.443013     1.345736
    7.870000     0.478728     1.348662
    7.880000     0.516615     1.347232
    7.890000     0.556156     1.340583
    7.900000     0.596526     1.327818
    7.910000     0.636548     1.308076
    7.920000     0.674549     1.280704
    7.930000     0.708398     1.245503
    7.940001     0.735623     1.203062
    7.950000     0.753803     1.154993
    7.960001     0.761105     1.103902
    7.970000     0.756768     1.053117
    7.980001     0.741366     1.006039
    7.990000     0.716695     0.965560
    8.000001     0.685318     0.933561
    8.010000     0.650042     0.910834
    8.020000     0.613413     0.897195
    8.030000     0.577490     0.891821
    8.040001     0.543716     0.893544
    8.050000     0.513018     0.901114
    8.060000     0.485881     0.913360
    8.070000     0.462503     0.929257
    8.080001     0.442878     0.947974
    8.090000     0.426903     0.968841
    8.100000     0.414416     0.991357
    8.110000     0.405252     1.015132
    8.120001     0.399258     1.039892
    8.130000     0.396314     1.065423
    8.140000     0.396337     1.091586
    8.150000     0.399291     1.118260
    8.160001     0.405190     1.145367
    8.170000     0.414095     1.172820
    8.180000     0.426127     1.200551
    8.190000     0.441457     1.228452
    8.200001     0.460321     1.256408
    8.210000     0.483008     1.284236
    8.220000     0.509879     1.311700
    8.230000     0.541340     1.338453
    8.240001     0.577869     1.364036
    8.249999     0.619959     1.387805
    8.260000     0.668139     1.408913
    8.270000     0.722865     1.426224
    8.280001     0.784505     1.438288
    8.290001     0.853150     1.443269
    8.300000     0.928466     1.438948
    8.310001     1.009499     1.422769
    8.320000     1.094321     1.392026
    8.330001     1.179898     1.344176
    8.340000     1.261859     1.277415
    8.350001     1.334767     1.191300
    8.360000     1.392595     1.087487
    8.370001     1.429792     0.969978
    8.380000     1.442400     0.845010
    8.390000     1.429062     0.720000
    8.400000     1.391330     0.602360
    8.410001     1.333211     0.498051
    8.420000     1.260208     0.410936
    8.430000     1.178127     0.342496
    8.440000     1.092257     0.292316
    8.450001     1.006755     0.258619
    8.460000     0.924599     0.238966
    8.470000     0.847585     0.230722
    8.480000     0.776654     0.231422
    8.490001     0.712057     0.238931
    8.500000     0.653679     0.251508
    8.510000     0.601144     0.267798
    8.520000     0.554014     0.286753
    8.530001     0.511799     0.307582
    8.540000     0.474049     0.329670
    8.550000     0.440316     0.352551
    8.559999     0.410203     0.375853
    8.570001     0.383323     0.399304
    8.580000     0.359338     0.422685
    8.590000     0.337924     0.445848
    8.599999     0.318801     0.468678
    8.610001     0.301710     0.491110
    8.620000     0.286429     0.513091
    8.630000     0.272756     0.534606
    8.639999     0.260519     0.555641
    8.650001     0.249562     0.576207
    8.660001     0.239755     0.596315
    8.670000     0.230983     0.615981
    8.680001     0.223144     0.635236
    8.690001     0.216152     0.654099
    8.700001     0.209930     0.672604
    8.710000     0.204415     0.690776
    8.720001     0.199547     0.708649
    8.730000     0.195281     0.726248
    8.740001     0.191573     0.743608
    8.750000     0.188389     0.760754
    8.760001     0.185696     0.777720
    8.770000     0.183472     0.794528
    8.780001     0.181693     0.811214
    8.790000     0.180345     0.827799
    8.800001     0.179412     0.844317
    8.809999     0.178888     0.860791
    8.820001     0.178764     0.877253
    8.830000     0.179039     0.893725
    8.840000     0.179713     0.910240
    8.849999     0.180789     0.926821
    8.860001     0.182274     0.943501
    8.870000     0.184179     0.960303
    8.880000     0.186517     0.977262
    8.889999     0.189304     0.994401
    8.900001     0.192564     1.011755
    8.910000     0.196320     1.029351
    8.920000     0.200603     1.047225
    8.929999     0.205447     1.065405
    8.940001     0.210895     1.083929
    8.950000     0.216993     1.102827
    8.960000     0.223795     1.122139
    8.969999     0.231364     1.141895
    8.980000     0.239774     1.162140
    8.990000     0.249104     1.182903
    9.000000     0.259452     1.204228
    9.009999     0.270923     1.226145
    9.020000     0.283648     1.248695
    9.030001     0.297768     1.271908
    9.040000     0.313446     1.295807
    9.050001     0.330880     1.320421
    9.060000     0.350284     1.345754
    9.070001     0.371918     1.371810
    9.080000     0.396071     1.398557
    9.090001     0.423088     1.425955
    9.100000     0.453351     1.453906
    9.110001     0.487318     1.482279
    9.120000     0.525488     1.510853
    9.130001     0.568455     1.539333
    9.140000     0.616851     1.567276
    9.150001     0.671407     1.594093
    9.160000     0.732866     1.618954
    9.170001     0.802027     1.640766
    9.180000     0.879606     1.658061
    9.190001     0.966229     1.668952
    9.200000     1.062175     1.671036
    9.210001     1.167274     1.661372
    9.219999     1.280481     1.636523
    9.230000     1.399657     1.592717
    9.240000     1.521058     1.526273
    9.250001     1.639251     1.434193
    9.259999     1.747022     1.315147
    9.270000     1.836100     1.170324
    9.280000     1.898218     1.004299
    9.290000     1.926850     0.824861
    9.299999     1.918714     0.642286
    9.310000     1.874688     0.467339
    9.320000     1.799598     0.309505
    9.330000     1.700917     0.175268
     9.34000      1.58718      0.06776
     9.35000      1.46633     -0.01305
     9.36000      1.34492     -0.06934
    9.370000     1.227625    -0.104556
    9.379999     1.117490    -0.122499
    9.390000     1.016092    -0.126853
    9.400001     0.924061    -0.120863
    9.410000     0.841348    -0.107242
     9.42000      0.76746     -0.08816
     9.43000      0.70176     -0.06532
     9.44000      0.64345     -0.04000
     9.45000      0.59178     -0.01320
     9.46000      0.54600      0.01439
     9.47000      0.50546      0.04222
     9.48000      0.46952      0.06993
     9.49000      0.43768      0.09723
    9.500001     0.409442     0.123927
    9.510000     0.384421     0.149880
    9.520000     0.362256     0.174993
    9.530000     0.342647     0.199176
    9.540001     0.325321     0.222372
    9.550000     0.310039     0.244509
    9.560000     0.296572     0.265533
    9.570000     0.284699     0.285372
    9.580001     0.274182     0.303974
    9.590000     0.264772     0.321289
    9.600000     0.256190     0.337311
    9.610000     0.248146     0.352081
    9.620001     0.240353     0.365721
    9.630000     0.232570     0.378423
    9.640000     0.224630     0.390447
    9.650000     0.216471     0.402070
    9.660001     0.208129     0.413547
    9.669999     0.199719     0.425066
    9.680000     0.191385     0.436742
    9.690000     0.183276     0.448608
    9.700001     0.175509     0.460647
    9.709999     0.168168     0.472806
    9.720000     0.161297     0.485022
    9.730000     0.154915     0.497228
    9.740000     0.149013     0.509370
    9.750001     0.143572     0.521402
    9.760000     0.138566     0.533288
    9.770001     0.133960     0.545005
    9.780000     0.129724     0.556537
    9.790001     0.125825     0.567877
    9.800000     0.122234     0.579018
    9.810000     0.118923     0.589964
    9.820000     0.115869     0.600714
    9.830001     0.113048     0.611278
    9.840000     0.110441     0.621659
    9.850000     0.108031     0.631867
    9.860000     0.105801     0.641906
    9.870001     0.103737     0.651790
    9.880000     0.101828     0.661523
    9.890000     0.100062     0.671116
     9.90000      0.09843      0.68058
     9.91000      0.09692      0.68991
     9.92000      0.09553      0.69913
     9.93000      0.09425      0.70825
     9.94000      0.09307      0.71726
     9.95000      0.09198      0.72618
     9.96000      0.09099      0.73501
     9.97000      0.09009      0.74376
     9.98000      0.08928      0.75245
     9.99000      0.08854      0.76107
    10.00000      0.08788      0.76962
# 
# 04/09/2018 at 16:08 YAMBO @ narro [start]
# 04/09/2018 at 16:08               [end]
#  
# Timing   [Min/Max/Average]: 07s/07s/07s
#
# .-Input file : yambo.in
# | optics                         # [R OPT] Optics
# | bse                            # [R BSE] Bethe Salpeter Equation.
# | BoseTemp= 0.000000     eV      # Bosonic Temperature
# | FFTGvecs=  3473        RL      # [FFT] Plane-waves
# | BSEmod= "resonant"             # [BSE] resonant/retarded/coupling
# | BSKmod= "IP"                   # [BSE] IP/Hartree/HF/ALDA/SEX/BSfxc
# | % BEnRange
# | -10.00000 | 10.00000 | eV      # [BSS] Energy range
# | %
# | % BDmRange
# |   0.10000 |  0.10000 | eV      # [BSS] Damping range
# | %
# | BEnSteps= 2001                 # [BSS] Energy steps
# | % BLongDir
# | 0.1000E-4 | 0.000    | 0.000    |        # [BSS] [cc] Electric Field
# | %
# | % BSEQptR
# |   1 |  4 |                     # [BSK] Transferred momenta range
# | %
# | % BSEBands
# |   1 | 10 |                     # [BSK] Bands range
# | %
