#                                                           
# :::   :::   :::     ::::    ::::  :::::::::   ::::::::    
# :+:   :+: :+: :+:   +:+:+: :+:+:+ :+:    :+: :+:    :+:   
#  +:+ +:+ +:+   +:+  +:+ +:+:+ +:+ +:+    +:+ +:+    +:+   
#   +#++: +#++:++#++: +#+  +:+  +#+ +#++:++#+  +#+    +:+   
#    +#+  +#+     +#+ +#+       +#+ +#+    +#+ +#+    +#+   
#    #+#  #+#     #+# #+#       #+# #+#    #+# #+#    #+#   
#    ###  ###     ### ###       ### #########   ########    
#                                                           
#                                                           
#        Version 4.3.0 Revision 15341 Hash c146fb2          
#                      MPI+SLK Build                        
#                http://www.yambo-code.org                  
#
# Absorption @ Q(2) [iku] : 0.500000  0.250000  0.000000
#
#
#
# - The Green`s function is Resonant -
#
#
#    E/ev[1]      EPS-Im[2]    EPS-Re[3]
#
   -10.00       0.7527E-3     1.127   
   -9.990       0.7536E-3     1.127   
   -9.980       0.7545E-3     1.127   
   -9.970       0.7554E-3     1.127   
   -9.960       0.7563E-3     1.127   
   -9.950       0.7572E-3     1.128   
   -9.940       0.7581E-3     1.128   
   -9.930       0.7591E-3     1.128   
   -9.920       0.7600E-3     1.128   
   -9.910       0.7609E-3     1.128   
   -9.900       0.7618E-3     1.128   
   -9.890       0.7627E-3     1.128   
   -9.880       0.7637E-3     1.128   
   -9.870       0.7646E-3     1.128   
   -9.860       0.7655E-3     1.128   
   -9.850       0.7665E-3     1.128   
   -9.840       0.7674E-3     1.128   
   -9.830       0.7683E-3     1.128   
   -9.820       0.7693E-3     1.129   
   -9.810       0.7702E-3     1.129   
   -9.800       0.7711E-3     1.129   
   -9.790       0.7721E-3     1.129   
   -9.780       0.7730E-3     1.129   
   -9.770       0.7740E-3     1.129   
   -9.760       0.7749E-3     1.129   
   -9.750       0.7759E-3     1.129   
   -9.740       0.7768E-3     1.129   
   -9.730       0.7778E-3     1.129   
   -9.720       0.7787E-3     1.129   
   -9.710       0.7797E-3     1.129   
   -9.700       0.7806E-3     1.129   
   -9.690       0.7816E-3     1.130   
   -9.680       0.7825E-3     1.130   
   -9.670       0.7835E-3     1.130   
   -9.660       0.7845E-3     1.130   
   -9.650       0.7854E-3     1.130   
   -9.640       0.7864E-3     1.130   
   -9.630       0.7874E-3     1.130   
   -9.620       0.7883E-3     1.130   
   -9.610       0.7893E-3     1.130   
   -9.600       0.7903E-3     1.130   
   -9.590       0.7913E-3     1.130   
   -9.580       0.7922E-3     1.130   
   -9.570       0.7932E-3     1.131   
   -9.560       0.7942E-3     1.131   
   -9.550       0.7952E-3     1.131   
   -9.540       0.7962E-3     1.131   
   -9.530       0.7972E-3     1.131   
   -9.520       0.7982E-3     1.131   
   -9.510       0.7991E-3     1.131   
   -9.500       0.8001E-3     1.131   
   -9.490       0.8011E-3     1.131   
   -9.480       0.8021E-3     1.131   
   -9.470       0.8031E-3     1.131   
   -9.460       0.8041E-3     1.131   
   -9.450       0.8051E-3     1.131   
   -9.440       0.8061E-3     1.132   
   -9.430       0.8071E-3     1.132   
   -9.420       0.8082E-3     1.132   
   -9.410       0.8092E-3     1.132   
   -9.400       0.8102E-3     1.132   
   -9.390       0.8112E-3     1.132   
   -9.380       0.8122E-3     1.132   
   -9.370       0.8132E-3     1.132   
   -9.360       0.8142E-3     1.132   
   -9.350       0.8153E-3     1.132   
   -9.340       0.8163E-3     1.132   
   -9.330       0.8173E-3     1.132   
   -9.320       0.8183E-3     1.133   
   -9.310       0.8194E-3     1.133   
   -9.300       0.8204E-3     1.133   
   -9.290       0.8214E-3     1.133   
   -9.280       0.8225E-3     1.133   
   -9.270       0.8235E-3     1.133   
   -9.260       0.8246E-3     1.133   
   -9.250       0.8256E-3     1.133   
   -9.240       0.8266E-3     1.133   
   -9.230       0.8277E-3     1.133   
   -9.220       0.8287E-3     1.133   
   -9.210       0.8298E-3     1.133   
   -9.200       0.8308E-3     1.134   
   -9.190       0.8319E-3     1.134   
   -9.180       0.8329E-3     1.134   
   -9.170       0.8340E-3     1.134   
   -9.160       0.8351E-3     1.134   
   -9.150       0.8361E-3     1.134   
   -9.140       0.8372E-3     1.134   
   -9.130       0.8383E-3     1.134   
   -9.120       0.8393E-3     1.134   
   -9.110       0.8404E-3     1.134   
   -9.100       0.8415E-3     1.134   
   -9.090       0.8425E-3     1.134   
   -9.080       0.8436E-3     1.135   
   -9.070       0.8447E-3     1.135   
   -9.060       0.8458E-3     1.135   
   -9.050       0.8469E-3     1.135   
   -9.040       0.8479E-3     1.135   
   -9.030       0.8490E-3     1.135   
   -9.020       0.8501E-3     1.135   
   -9.010       0.8512E-3     1.135   
   -9.000       0.8523E-3     1.135   
   -8.990       0.8534E-3     1.135   
   -8.980       0.8545E-3     1.135   
   -8.970       0.8556E-3     1.135   
   -8.960       0.8567E-3     1.136   
   -8.950       0.8578E-3     1.136   
   -8.940       0.8589E-3     1.136   
   -8.930       0.8600E-3     1.136   
   -8.920       0.8611E-3     1.136   
   -8.910       0.8622E-3     1.136   
   -8.900       0.8634E-3     1.136   
   -8.890       0.8645E-3     1.136   
   -8.880       0.8656E-3     1.136   
   -8.870       0.8667E-3     1.136   
   -8.860       0.8678E-3     1.136   
   -8.850       0.8690E-3     1.136   
   -8.840       0.8701E-3     1.137   
   -8.830       0.8712E-3     1.137   
   -8.820       0.8724E-3     1.137   
   -8.810       0.8735E-3     1.137   
   -8.800       0.8746E-3     1.137   
   -8.790       0.8758E-3     1.137   
   -8.780       0.8769E-3     1.137   
   -8.770       0.8781E-3     1.137   
   -8.760       0.8792E-3     1.137   
   -8.750       0.8804E-3     1.137   
   -8.740       0.8815E-3     1.137   
   -8.730       0.8827E-3     1.138   
   -8.720       0.8838E-3     1.138   
   -8.710       0.8850E-3     1.138   
   -8.700       0.8861E-3     1.138   
   -8.690       0.8873E-3     1.138   
   -8.680       0.8885E-3     1.138   
   -8.670       0.8896E-3     1.138   
   -8.660       0.8908E-3     1.138   
   -8.650       0.8920E-3     1.138   
   -8.640       0.8932E-3     1.138   
   -8.630       0.8943E-3     1.138   
   -8.620       0.8955E-3     1.139   
   -8.610       0.8967E-3     1.139   
   -8.600       0.8979E-3     1.139   
   -8.590       0.8991E-3     1.139   
   -8.580       0.9002E-3     1.139   
   -8.570       0.9014E-3     1.139   
   -8.560       0.9026E-3     1.139   
   -8.550       0.9038E-3     1.139   
   -8.540       0.9050E-3     1.139   
   -8.530       0.9062E-3     1.139   
   -8.520       0.9074E-3     1.139   
   -8.510       0.9086E-3     1.140   
   -8.500       0.9098E-3     1.140   
   -8.490       0.9111E-3     1.140   
   -8.480       0.9123E-3     1.140   
   -8.470       0.9135E-3     1.140   
   -8.460       0.9147E-3     1.140   
   -8.450       0.9159E-3     1.140   
   -8.440       0.9171E-3     1.140   
   -8.430       0.9184E-3     1.140   
   -8.420       0.9196E-3     1.140   
   -8.410       0.9208E-3     1.140   
   -8.400       0.9221E-3     1.141   
   -8.390       0.9233E-3     1.141   
   -8.380       0.9245E-3     1.141   
   -8.370       0.9258E-3     1.141   
   -8.360       0.9270E-3     1.141   
   -8.350       0.9283E-3     1.141   
   -8.340       0.9295E-3     1.141   
   -8.330       0.9308E-3     1.141   
   -8.320       0.9320E-3     1.141   
   -8.310       0.9333E-3     1.141   
   -8.300       0.9345E-3     1.141   
   -8.290       0.9358E-3     1.142   
   -8.280       0.9371E-3     1.142   
   -8.270       0.9383E-3     1.142   
   -8.260       0.9396E-3     1.142   
   -8.250       0.9409E-3     1.142   
   -8.240       0.9421E-3     1.142   
   -8.230       0.9434E-3     1.142   
   -8.220       0.9447E-3     1.142   
   -8.210       0.9460E-3     1.142   
   -8.200       0.9473E-3     1.142   
   -8.190       0.9485E-3     1.142   
   -8.180       0.9498E-3     1.143   
   -8.170       0.9511E-3     1.143   
   -8.160       0.9524E-3     1.143   
   -8.150       0.9537E-3     1.143   
   -8.140       0.9550E-3     1.143   
   -8.130       0.9563E-3     1.143   
   -8.120       0.9576E-3     1.143   
   -8.110       0.9589E-3     1.143   
   -8.100       0.9603E-3     1.143   
   -8.090       0.9616E-3     1.143   
   -8.080       0.9629E-3     1.144   
   -8.070       0.9642E-3     1.144   
   -8.060       0.9655E-3     1.144   
   -8.050       0.9669E-3     1.144   
   -8.040       0.9682E-3     1.144   
   -8.030       0.9695E-3     1.144   
   -8.020       0.9708E-3     1.144   
   -8.010       0.9722E-3     1.144   
   -8.000       0.9735E-3     1.144   
   -7.990       0.9749E-3     1.144   
   -7.980       0.9762E-3     1.144   
   -7.970       0.9776E-3     1.145   
   -7.960       0.9789E-3     1.145   
   -7.950       0.9803E-3     1.145   
   -7.940       0.9816E-3     1.145   
   -7.930       0.9830E-3     1.145   
   -7.920       0.9843E-3     1.145   
   -7.910       0.9857E-3     1.145   
   -7.900       0.9871E-3     1.145   
   -7.890       0.9884E-3     1.145   
   -7.880       0.9898E-3     1.145   
   -7.870       0.9912E-3     1.146   
   -7.860       0.9926E-3     1.146   
   -7.850       0.9940E-3     1.146   
   -7.840       0.9953E-3     1.146   
   -7.830       0.9967E-3     1.146   
   -7.820       0.9981E-3     1.146   
   -7.810       0.9995E-3     1.146   
   -7.800       0.1001E-2     1.146   
   -7.790       0.1002E-2     1.146   
   -7.780       0.1004E-2     1.146   
   -7.770       0.1005E-2     1.147   
   -7.760       0.1007E-2     1.147   
   -7.750       0.1008E-2     1.147   
   -7.740       0.1009E-2     1.147   
   -7.730       0.1011E-2     1.147   
   -7.720       0.1012E-2     1.147   
   -7.710       0.1014E-2     1.147   
   -7.700       0.1015E-2     1.147   
   -7.690       0.1016E-2     1.147   
   -7.680       0.1018E-2     1.147   
   -7.670       0.1019E-2     1.148   
   -7.660       0.1021E-2     1.148   
   -7.650       0.1022E-2     1.148   
   -7.640       0.1024E-2     1.148   
   -7.630       0.1025E-2     1.148   
   -7.620       0.1027E-2     1.148   
   -7.610       0.1028E-2     1.148   
   -7.600       0.1030E-2     1.148   
   -7.590       0.1031E-2     1.148   
   -7.580       0.1032E-2     1.149   
   -7.570       0.1034E-2     1.149   
   -7.560       0.1035E-2     1.149   
   -7.550       0.1037E-2     1.149   
   -7.540       0.1038E-2     1.149   
   -7.530       0.1040E-2     1.149   
   -7.520       0.1041E-2     1.149   
   -7.510       0.1043E-2     1.149   
   -7.500       0.1044E-2     1.149   
   -7.490       0.1046E-2     1.149   
   -7.480       0.1047E-2     1.150   
   -7.470       0.1049E-2     1.150   
   -7.460       0.1050E-2     1.150   
   -7.450       0.1052E-2     1.150   
   -7.440       0.1053E-2     1.150   
   -7.430       0.1055E-2     1.150   
   -7.420       0.1056E-2     1.150   
   -7.410       0.1058E-2     1.150   
   -7.400       0.1059E-2     1.150   
   -7.390       0.1061E-2     1.150   
   -7.380       0.1062E-2     1.151   
   -7.370       0.1064E-2     1.151   
   -7.360       0.1065E-2     1.151   
   -7.350       0.1067E-2     1.151   
   -7.340       0.1069E-2     1.151   
   -7.330       0.1070E-2     1.151   
   -7.320       0.1072E-2     1.151   
   -7.310       0.1073E-2     1.151   
   -7.300       0.1075E-2     1.151   
   -7.290       0.1076E-2     1.152   
   -7.280       0.1078E-2     1.152   
   -7.270       0.1079E-2     1.152   
   -7.260       0.1081E-2     1.152   
   -7.250       0.1083E-2     1.152   
   -7.240       0.1084E-2     1.152   
   -7.230       0.1086E-2     1.152   
   -7.220       0.1087E-2     1.152   
   -7.210       0.1089E-2     1.152   
   -7.200       0.1091E-2     1.153   
   -7.190       0.1092E-2     1.153   
   -7.180       0.1094E-2     1.153   
   -7.170       0.1095E-2     1.153   
   -7.160       0.1097E-2     1.153   
   -7.150       0.1099E-2     1.153   
   -7.140       0.1100E-2     1.153   
   -7.130       0.1102E-2     1.153   
   -7.120       0.1103E-2     1.153   
   -7.110       0.1105E-2     1.154   
   -7.100       0.1107E-2     1.154   
   -7.090       0.1108E-2     1.154   
   -7.080       0.1110E-2     1.154   
   -7.070       0.1112E-2     1.154   
   -7.060       0.1113E-2     1.154   
   -7.050       0.1115E-2     1.154   
   -7.040       0.1117E-2     1.154   
   -7.030       0.1118E-2     1.154   
   -7.020       0.1120E-2     1.155   
   -7.010       0.1122E-2     1.155   
   -7.000       0.1123E-2     1.155   
   -6.990       0.1125E-2     1.155   
   -6.980       0.1127E-2     1.155   
   -6.970       0.1128E-2     1.155   
   -6.960       0.1130E-2     1.155   
   -6.950       0.1132E-2     1.155   
   -6.940       0.1133E-2     1.155   
   -6.930       0.1135E-2     1.156   
   -6.920       0.1137E-2     1.156   
   -6.910       0.1138E-2     1.156   
   -6.900       0.1140E-2     1.156   
   -6.890       0.1142E-2     1.156   
   -6.880       0.1143E-2     1.156   
   -6.870       0.1145E-2     1.156   
   -6.860       0.1147E-2     1.156   
   -6.850       0.1149E-2     1.156   
   -6.840       0.1150E-2     1.157   
   -6.830       0.1152E-2     1.157   
   -6.820       0.1154E-2     1.157   
   -6.810       0.1156E-2     1.157   
   -6.800       0.1157E-2     1.157   
   -6.790       0.1159E-2     1.157   
   -6.780       0.1161E-2     1.157   
   -6.770       0.1163E-2     1.157   
   -6.760       0.1164E-2     1.157   
   -6.750       0.1166E-2     1.158   
   -6.740       0.1168E-2     1.158   
   -6.730       0.1170E-2     1.158   
   -6.720       0.1171E-2     1.158   
   -6.710       0.1173E-2     1.158   
   -6.700       0.1175E-2     1.158   
   -6.690       0.1177E-2     1.158   
   -6.680       0.1179E-2     1.158   
   -6.670       0.1180E-2     1.159   
   -6.660       0.1182E-2     1.159   
   -6.650       0.1184E-2     1.159   
   -6.640       0.1186E-2     1.159   
   -6.630       0.1188E-2     1.159   
   -6.620       0.1189E-2     1.159   
   -6.610       0.1191E-2     1.159   
   -6.600       0.1193E-2     1.159   
   -6.590       0.1195E-2     1.160   
   -6.580       0.1197E-2     1.160   
   -6.570       0.1199E-2     1.160   
   -6.560       0.1200E-2     1.160   
   -6.550       0.1202E-2     1.160   
   -6.540       0.1204E-2     1.160   
   -6.530       0.1206E-2     1.160   
   -6.520       0.1208E-2     1.160   
   -6.510       0.1210E-2     1.160   
   -6.500       0.1212E-2     1.161   
   -6.490       0.1213E-2     1.161   
   -6.480       0.1215E-2     1.161   
   -6.470       0.1217E-2     1.161   
   -6.460       0.1219E-2     1.161   
   -6.450       0.1221E-2     1.161   
   -6.440       0.1223E-2     1.161   
   -6.430       0.1225E-2     1.161   
   -6.420       0.1227E-2     1.162   
   -6.410       0.1229E-2     1.162   
   -6.400       0.1231E-2     1.162   
   -6.390       0.1232E-2     1.162   
   -6.380       0.1234E-2     1.162   
   -6.370       0.1236E-2     1.162   
   -6.360       0.1238E-2     1.162   
   -6.350       0.1240E-2     1.162   
   -6.340       0.1242E-2     1.163   
   -6.330       0.1244E-2     1.163   
   -6.320       0.1246E-2     1.163   
   -6.310       0.1248E-2     1.163   
   -6.300       0.1250E-2     1.163   
   -6.290       0.1252E-2     1.163   
   -6.280       0.1254E-2     1.163   
   -6.270       0.1256E-2     1.163   
   -6.260       0.1258E-2     1.164   
   -6.250       0.1260E-2     1.164   
   -6.240       0.1262E-2     1.164   
   -6.230       0.1264E-2     1.164   
   -6.220       0.1266E-2     1.164   
   -6.210       0.1268E-2     1.164   
   -6.200       0.1270E-2     1.164   
   -6.190       0.1272E-2     1.164   
   -6.180       0.1274E-2     1.165   
   -6.170       0.1276E-2     1.165   
   -6.160       0.1278E-2     1.165   
   -6.150       0.1280E-2     1.165   
   -6.140       0.1282E-2     1.165   
   -6.130       0.1284E-2     1.165   
   -6.120       0.1286E-2     1.165   
   -6.110       0.1288E-2     1.165   
   -6.100       0.1290E-2     1.166   
   -6.090       0.1292E-2     1.166   
   -6.080       0.1294E-2     1.166   
   -6.070       0.1296E-2     1.166   
   -6.060       0.1298E-2     1.166   
   -6.050       0.1301E-2     1.166   
   -6.040       0.1303E-2     1.166   
   -6.030       0.1305E-2     1.166   
   -6.020       0.1307E-2     1.167   
   -6.010       0.1309E-2     1.167   
   -6.000       0.1311E-2     1.167   
   -5.990       0.1313E-2     1.167   
   -5.980       0.1315E-2     1.167   
   -5.970       0.1317E-2     1.167   
   -5.960       0.1320E-2     1.167   
   -5.950       0.1322E-2     1.168   
   -5.940       0.1324E-2     1.168   
   -5.930       0.1326E-2     1.168   
   -5.920       0.1328E-2     1.168   
   -5.910       0.1330E-2     1.168   
   -5.900       0.1332E-2     1.168   
   -5.890       0.1335E-2     1.168   
   -5.880       0.1337E-2     1.168   
   -5.870       0.1339E-2     1.169   
   -5.860       0.1341E-2     1.169   
   -5.850       0.1343E-2     1.169   
   -5.840       0.1346E-2     1.169   
   -5.830       0.1348E-2     1.169   
   -5.820       0.1350E-2     1.169   
   -5.810       0.1352E-2     1.169   
   -5.800       0.1354E-2     1.170   
   -5.790       0.1357E-2     1.170   
   -5.780       0.1359E-2     1.170   
   -5.770       0.1361E-2     1.170   
   -5.760       0.1363E-2     1.170   
   -5.750       0.1366E-2     1.170   
   -5.740       0.1368E-2     1.170   
   -5.730       0.1370E-2     1.171   
   -5.720       0.1372E-2     1.171   
   -5.710       0.1375E-2     1.171   
   -5.700       0.1377E-2     1.171   
   -5.690       0.1379E-2     1.171   
   -5.680       0.1382E-2     1.171   
   -5.670       0.1384E-2     1.171   
   -5.660       0.1386E-2     1.171   
   -5.650       0.1388E-2     1.172   
   -5.640       0.1391E-2     1.172   
   -5.630       0.1393E-2     1.172   
   -5.620       0.1395E-2     1.172   
   -5.610       0.1398E-2     1.172   
   -5.600       0.1400E-2     1.172   
   -5.590       0.1402E-2     1.172   
   -5.580       0.1405E-2     1.173   
   -5.570       0.1407E-2     1.173   
   -5.560       0.1409E-2     1.173   
   -5.550       0.1412E-2     1.173   
   -5.540       0.1414E-2     1.173   
   -5.530       0.1417E-2     1.173   
   -5.520       0.1419E-2     1.173   
   -5.510       0.1421E-2     1.174   
   -5.500       0.1424E-2     1.174   
   -5.490       0.1426E-2     1.174   
   -5.480       0.1429E-2     1.174   
   -5.470       0.1431E-2     1.174   
   -5.460       0.1433E-2     1.174   
   -5.450       0.1436E-2     1.174   
   -5.440       0.1438E-2     1.175   
   -5.430       0.1441E-2     1.175   
   -5.420       0.1443E-2     1.175   
   -5.410       0.1446E-2     1.175   
   -5.400       0.1448E-2     1.175   
   -5.390       0.1450E-2     1.175   
   -5.380       0.1453E-2     1.175   
   -5.370       0.1455E-2     1.176   
   -5.360       0.1458E-2     1.176   
   -5.350       0.1460E-2     1.176   
   -5.340       0.1463E-2     1.176   
   -5.330       0.1465E-2     1.176   
   -5.320       0.1468E-2     1.176   
   -5.310       0.1470E-2     1.176   
   -5.300       0.1473E-2     1.177   
   -5.290       0.1475E-2     1.177   
   -5.280       0.1478E-2     1.177   
   -5.270       0.1481E-2     1.177   
   -5.260       0.1483E-2     1.177   
   -5.250       0.1486E-2     1.177   
   -5.240       0.1488E-2     1.177   
   -5.230       0.1491E-2     1.178   
   -5.220       0.1493E-2     1.178   
   -5.210       0.1496E-2     1.178   
   -5.200       0.1499E-2     1.178   
   -5.190       0.1501E-2     1.178   
   -5.180       0.1504E-2     1.178   
   -5.170       0.1506E-2     1.179   
   -5.160       0.1509E-2     1.179   
   -5.150       0.1512E-2     1.179   
   -5.140       0.1514E-2     1.179   
   -5.130       0.1517E-2     1.179   
   -5.120       0.1520E-2     1.179   
   -5.110       0.1522E-2     1.179   
   -5.100       0.1525E-2     1.180   
   -5.090       0.1528E-2     1.180   
   -5.080       0.1530E-2     1.180   
   -5.070       0.1533E-2     1.180   
   -5.060       0.1536E-2     1.180   
   -5.050       0.1538E-2     1.180   
   -5.040       0.1541E-2     1.181   
   -5.030       0.1544E-2     1.181   
   -5.020       0.1546E-2     1.181   
   -5.010       0.1549E-2     1.181   
   -5.000       0.1552E-2     1.181   
   -4.990       0.1555E-2     1.181   
   -4.980       0.1557E-2     1.181   
   -4.970       0.1560E-2     1.182   
   -4.960       0.1563E-2     1.182   
   -4.950       0.1566E-2     1.182   
   -4.940       0.1568E-2     1.182   
   -4.930       0.1571E-2     1.182   
   -4.920       0.1574E-2     1.182   
   -4.910       0.1577E-2     1.183   
   -4.900       0.1580E-2     1.183   
   -4.890       0.1582E-2     1.183   
   -4.880       0.1585E-2     1.183   
   -4.870       0.1588E-2     1.183   
   -4.860       0.1591E-2     1.183   
   -4.850       0.1594E-2     1.184   
   -4.840       0.1597E-2     1.184   
   -4.830       0.1599E-2     1.184   
   -4.820       0.1602E-2     1.184   
   -4.810       0.1605E-2     1.184   
   -4.800       0.1608E-2     1.184   
   -4.790       0.1611E-2     1.184   
   -4.780       0.1614E-2     1.185   
   -4.770       0.1617E-2     1.185   
   -4.760       0.1620E-2     1.185   
   -4.750       0.1623E-2     1.185   
   -4.740       0.1626E-2     1.185   
   -4.730       0.1629E-2     1.185   
   -4.720       0.1632E-2     1.186   
   -4.710       0.1634E-2     1.186   
   -4.700       0.1637E-2     1.186   
   -4.690       0.1640E-2     1.186   
   -4.680       0.1643E-2     1.186   
   -4.670       0.1646E-2     1.186   
   -4.660       0.1649E-2     1.187   
   -4.650       0.1652E-2     1.187   
   -4.640       0.1655E-2     1.187   
   -4.630       0.1658E-2     1.187   
   -4.620       0.1662E-2     1.187   
   -4.610       0.1665E-2     1.187   
   -4.600       0.1668E-2     1.188   
   -4.590       0.1671E-2     1.188   
   -4.580       0.1674E-2     1.188   
   -4.570       0.1677E-2     1.188   
   -4.560       0.1680E-2     1.188   
   -4.550       0.1683E-2     1.188   
   -4.540       0.1686E-2     1.189   
   -4.530       0.1689E-2     1.189   
   -4.520       0.1692E-2     1.189   
   -4.510       0.1695E-2     1.189   
   -4.500       0.1699E-2     1.189   
   -4.490       0.1702E-2     1.189   
   -4.480       0.1705E-2     1.190   
   -4.470       0.1708E-2     1.190   
   -4.460       0.1711E-2     1.190   
   -4.450       0.1714E-2     1.190   
   -4.440       0.1718E-2     1.190   
   -4.430       0.1721E-2     1.190   
   -4.420       0.1724E-2     1.191   
   -4.410       0.1727E-2     1.191   
   -4.400       0.1731E-2     1.191   
   -4.390       0.1734E-2     1.191   
   -4.380       0.1737E-2     1.191   
   -4.370       0.1740E-2     1.191   
   -4.360       0.1744E-2     1.192   
   -4.350       0.1747E-2     1.192   
   -4.340       0.1750E-2     1.192   
   -4.330       0.1753E-2     1.192   
   -4.320       0.1757E-2     1.192   
   -4.310       0.1760E-2     1.193   
   -4.300       0.1763E-2     1.193   
   -4.290       0.1767E-2     1.193   
   -4.280       0.1770E-2     1.193   
   -4.270       0.1773E-2     1.193   
   -4.260       0.1777E-2     1.193   
   -4.250       0.1780E-2     1.194   
   -4.240       0.1784E-2     1.194   
   -4.230       0.1787E-2     1.194   
   -4.220       0.1790E-2     1.194   
   -4.210       0.1794E-2     1.194   
   -4.200       0.1797E-2     1.195   
   -4.190       0.1801E-2     1.195   
   -4.180       0.1804E-2     1.195   
   -4.170       0.1808E-2     1.195   
   -4.160       0.1811E-2     1.195   
   -4.150       0.1814E-2     1.195   
   -4.140       0.1818E-2     1.196   
   -4.130       0.1821E-2     1.196   
   -4.120       0.1825E-2     1.196   
   -4.110       0.1829E-2     1.196   
   -4.100       0.1832E-2     1.196   
   -4.090       0.1836E-2     1.196   
   -4.080       0.1839E-2     1.197   
   -4.070       0.1843E-2     1.197   
   -4.060       0.1846E-2     1.197   
   -4.050       0.1850E-2     1.197   
   -4.040       0.1853E-2     1.197   
   -4.030       0.1857E-2     1.198   
   -4.020       0.1861E-2     1.198   
   -4.010       0.1864E-2     1.198   
   -4.000       0.1868E-2     1.198   
   -3.990       0.1872E-2     1.198   
   -3.980       0.1875E-2     1.199   
   -3.970       0.1879E-2     1.199   
   -3.960       0.1883E-2     1.199   
   -3.950       0.1886E-2     1.199   
   -3.940       0.1890E-2     1.199   
   -3.930       0.1894E-2     1.199   
   -3.920       0.1897E-2     1.200   
   -3.910       0.1901E-2     1.200   
   -3.900       0.1905E-2     1.200   
   -3.890       0.1909E-2     1.200   
   -3.880       0.1912E-2     1.200   
   -3.870       0.1916E-2     1.201   
   -3.860       0.1920E-2     1.201   
   -3.850       0.1924E-2     1.201   
   -3.840       0.1928E-2     1.201   
   -3.830       0.1931E-2     1.201   
   -3.820       0.1935E-2     1.202   
   -3.810       0.1939E-2     1.202   
   -3.800       0.1943E-2     1.202   
   -3.790       0.1947E-2     1.202   
   -3.780       0.1951E-2     1.202   
   -3.770       0.1955E-2     1.203   
   -3.760       0.1959E-2     1.203   
   -3.750       0.1962E-2     1.203   
   -3.740       0.1966E-2     1.203   
   -3.730       0.1970E-2     1.203   
   -3.720       0.1974E-2     1.204   
   -3.710       0.1978E-2     1.204   
   -3.700       0.1982E-2     1.204   
   -3.690       0.1986E-2     1.204   
   -3.680       0.1990E-2     1.204   
   -3.670       0.1994E-2     1.205   
   -3.660       0.1998E-2     1.205   
   -3.650       0.2002E-2     1.205   
   -3.640       0.2006E-2     1.205   
   -3.630       0.2011E-2     1.205   
   -3.620       0.2015E-2     1.206   
   -3.610       0.2019E-2     1.206   
   -3.600       0.2023E-2     1.206   
   -3.590       0.2027E-2     1.206   
   -3.580       0.2031E-2     1.206   
   -3.570       0.2035E-2     1.207   
   -3.560       0.2039E-2     1.207   
   -3.550       0.2044E-2     1.207   
   -3.540       0.2048E-2     1.207   
   -3.530       0.2052E-2     1.207   
   -3.520       0.2056E-2     1.208   
   -3.510       0.2060E-2     1.208   
   -3.500       0.2065E-2     1.208   
   -3.490       0.2069E-2     1.208   
   -3.480       0.2073E-2     1.208   
   -3.470       0.2077E-2     1.209   
   -3.460       0.2082E-2     1.209   
   -3.450       0.2086E-2     1.209   
   -3.440       0.2090E-2     1.209   
   -3.430       0.2095E-2     1.209   
   -3.420       0.2099E-2     1.210   
   -3.410       0.2103E-2     1.210   
   -3.400       0.2108E-2     1.210   
   -3.390       0.2112E-2     1.210   
   -3.380       0.2117E-2     1.210   
   -3.370       0.2121E-2     1.211   
   -3.360       0.2125E-2     1.211   
   -3.350       0.2130E-2     1.211   
   -3.340       0.2134E-2     1.211   
   -3.330       0.2139E-2     1.212   
   -3.320       0.2143E-2     1.212   
   -3.310       0.2148E-2     1.212   
   -3.300       0.2152E-2     1.212   
   -3.290       0.2157E-2     1.212   
   -3.280       0.2162E-2     1.213   
   -3.270       0.2166E-2     1.213   
   -3.260       0.2171E-2     1.213   
   -3.250       0.2175E-2     1.213   
   -3.240       0.2180E-2     1.213   
   -3.230       0.2185E-2     1.214   
   -3.220       0.2189E-2     1.214   
   -3.210       0.2194E-2     1.214   
   -3.200       0.2198E-2     1.214   
   -3.190       0.2203E-2     1.215   
   -3.180       0.2208E-2     1.215   
   -3.170       0.2213E-2     1.215   
   -3.160       0.2217E-2     1.215   
   -3.150       0.2222E-2     1.215   
   -3.140       0.2227E-2     1.216   
   -3.130       0.2232E-2     1.216   
   -3.120       0.2236E-2     1.216   
   -3.110       0.2241E-2     1.216   
   -3.100       0.2246E-2     1.217   
   -3.090       0.2251E-2     1.217   
   -3.080       0.2256E-2     1.217   
   -3.070       0.2261E-2     1.217   
   -3.060       0.2266E-2     1.217   
   -3.050       0.2270E-2     1.218   
   -3.040       0.2275E-2     1.218   
   -3.030       0.2280E-2     1.218   
   -3.020       0.2285E-2     1.218   
   -3.010       0.2290E-2     1.219   
   -3.000       0.2295E-2     1.219   
   -2.990       0.2300E-2     1.219   
   -2.980       0.2305E-2     1.219   
   -2.970       0.2310E-2     1.220   
   -2.960       0.2315E-2     1.220   
   -2.950       0.2321E-2     1.220   
   -2.940       0.2326E-2     1.220   
   -2.930       0.2331E-2     1.220   
   -2.920       0.2336E-2     1.221   
   -2.910       0.2341E-2     1.221   
   -2.900       0.2346E-2     1.221   
   -2.890       0.2351E-2     1.221   
   -2.880       0.2357E-2     1.222   
   -2.870       0.2362E-2     1.222   
   -2.860       0.2367E-2     1.222   
   -2.850       0.2372E-2     1.222   
   -2.840       0.2378E-2     1.223   
   -2.830       0.2383E-2     1.223   
   -2.820       0.2388E-2     1.223   
   -2.810       0.2394E-2     1.223   
   -2.800       0.2399E-2     1.224   
   -2.790       0.2404E-2     1.224   
   -2.780       0.2410E-2     1.224   
   -2.770       0.2415E-2     1.224   
   -2.760       0.2420E-2     1.225   
   -2.750       0.2426E-2     1.225   
   -2.740       0.2431E-2     1.225   
   -2.730       0.2437E-2     1.225   
   -2.720       0.2442E-2     1.225   
   -2.710       0.2448E-2     1.226   
   -2.700       0.2453E-2     1.226   
   -2.690       0.2459E-2     1.226   
   -2.680       0.2465E-2     1.226   
   -2.670       0.2470E-2     1.227   
   -2.660       0.2476E-2     1.227   
   -2.650       0.2481E-2     1.227   
   -2.640       0.2487E-2     1.227   
   -2.630       0.2493E-2     1.228   
   -2.620       0.2498E-2     1.228   
   -2.610       0.2504E-2     1.228   
   -2.600       0.2510E-2     1.228   
   -2.590       0.2516E-2     1.229   
   -2.580       0.2521E-2     1.229   
   -2.570       0.2527E-2     1.229   
   -2.560       0.2533E-2     1.229   
   -2.550       0.2539E-2     1.230   
     -2.5400       0.0025       1.2300
     -2.5300       0.0026       1.2302
     -2.5200       0.0026       1.2305
     -2.5100       0.0026       1.2307
     -2.5000       0.0026       1.2310
     -2.4900       0.0026       1.2313
     -2.4800       0.0026       1.2315
     -2.4700       0.0026       1.2318
     -2.4600       0.0026       1.2320
     -2.4500       0.0026       1.2323
     -2.4400       0.0026       1.2326
     -2.4300       0.0026       1.2328
     -2.4200       0.0026       1.2331
     -2.4100       0.0026       1.2333
     -2.4000       0.0026       1.2336
     -2.3900       0.0026       1.2339
     -2.3800       0.0026       1.2341
     -2.3700       0.0026       1.2344
     -2.3600       0.0027       1.2347
     -2.3500       0.0027       1.2349
     -2.3400       0.0027       1.2352
     -2.3300       0.0027       1.2355
     -2.3200       0.0027       1.2357
     -2.3100       0.0027       1.2360
     -2.3000       0.0027       1.2363
     -2.2900       0.0027       1.2365
     -2.2800       0.0027       1.2368
     -2.2700       0.0027       1.2371
     -2.2600       0.0027       1.2373
     -2.2500       0.0027       1.2376
     -2.2400       0.0027       1.2379
     -2.2300       0.0027       1.2382
     -2.2200       0.0027       1.2384
     -2.2100       0.0028       1.2387
     -2.2000       0.0028       1.2390
     -2.1900       0.0028       1.2393
     -2.1800       0.0028       1.2395
     -2.1700       0.0028       1.2398
     -2.1600       0.0028       1.2401
     -2.1500       0.0028       1.2404
     -2.1400       0.0028       1.2406
     -2.1300       0.0028       1.2409
     -2.1200       0.0028       1.2412
     -2.1100       0.0028       1.2415
     -2.1000       0.0028       1.2418
     -2.0900       0.0028       1.2421
     -2.0800       0.0028       1.2423
     -2.0700       0.0028       1.2426
     -2.0600       0.0029       1.2429
     -2.0500       0.0029       1.2432
     -2.0400       0.0029       1.2435
     -2.0300       0.0029       1.2438
     -2.0200       0.0029       1.2441
     -2.0100       0.0029       1.2443
     -2.0000       0.0029       1.2446
     -1.9900       0.0029       1.2449
     -1.9800       0.0029       1.2452
     -1.9700       0.0029       1.2455
     -1.9600       0.0029       1.2458
     -1.9500       0.0029       1.2461
     -1.9400       0.0029       1.2464
     -1.9300       0.0029       1.2467
     -1.9200       0.0030       1.2470
     -1.9100       0.0030       1.2473
     -1.9000       0.0030       1.2476
     -1.8900       0.0030       1.2479
     -1.8800       0.0030       1.2482
     -1.8700       0.0030       1.2485
     -1.8600       0.0030       1.2488
     -1.8500       0.0030       1.2491
     -1.8400       0.0030       1.2494
     -1.8300       0.0030       1.2497
     -1.8200       0.0030       1.2500
     -1.8100       0.0030       1.2503
     -1.8000       0.0030       1.2506
     -1.7900       0.0031       1.2509
     -1.7800       0.0031       1.2512
     -1.7700       0.0031       1.2515
     -1.7600       0.0031       1.2518
     -1.7500       0.0031       1.2521
     -1.7400       0.0031       1.2524
     -1.7300       0.0031       1.2527
     -1.7200       0.0031       1.2530
     -1.7100       0.0031       1.2533
     -1.7000       0.0031       1.2536
     -1.6900       0.0031       1.2540
     -1.6800       0.0031       1.2543
     -1.6700       0.0031       1.2546
     -1.6600       0.0032       1.2549
     -1.6500       0.0032       1.2552
     -1.6400       0.0032       1.2555
     -1.6300       0.0032       1.2559
     -1.6200       0.0032       1.2562
     -1.6100       0.0032       1.2565
     -1.6000       0.0032       1.2568
     -1.5900       0.0032       1.2571
     -1.5800       0.0032       1.2575
     -1.5700       0.0032       1.2578
     -1.5600       0.0032       1.2581
     -1.5500       0.0032       1.2584
     -1.5400       0.0033       1.2587
     -1.5300       0.0033       1.2591
     -1.5200       0.0033       1.2594
     -1.5100       0.0033       1.2597
     -1.5000       0.0033       1.2601
     -1.4900       0.0033       1.2604
     -1.4800       0.0033       1.2607
     -1.4700       0.0033       1.2611
     -1.4600       0.0033       1.2614
     -1.4500       0.0033       1.2617
     -1.4400       0.0033       1.2620
     -1.4300       0.0034       1.2624
     -1.4200       0.0034       1.2627
     -1.4100       0.0034       1.2631
     -1.4000       0.0034       1.2634
     -1.3900       0.0034       1.2637
     -1.3800       0.0034       1.2641
     -1.3700       0.0034       1.2644
     -1.3600       0.0034       1.2648
     -1.3500       0.0034       1.2651
     -1.3400       0.0034       1.2654
     -1.3300       0.0034       1.2658
     -1.3200       0.0035       1.2661
     -1.3100       0.0035       1.2665
     -1.3000       0.0035       1.2668
     -1.2900       0.0035       1.2672
     -1.2800       0.0035       1.2675
     -1.2700       0.0035       1.2679
     -1.2600       0.0035       1.2682
     -1.2500       0.0035       1.2686
     -1.2400       0.0035       1.2689
     -1.2300       0.0035       1.2693
     -1.2200       0.0036       1.2696
     -1.2100       0.0036       1.2700
     -1.2000       0.0036       1.2703
     -1.1900       0.0036       1.2707
     -1.1800       0.0036       1.2711
     -1.1700       0.0036       1.2714
     -1.1600       0.0036       1.2718
     -1.1500       0.0036       1.2721
     -1.1400       0.0036       1.2725
     -1.1300       0.0036       1.2729
     -1.1200       0.0037       1.2732
     -1.1100       0.0037       1.2736
     -1.1000       0.0037       1.2740
     -1.0900       0.0037       1.2743
     -1.0800       0.0037       1.2747
     -1.0700       0.0037       1.2751
     -1.0600       0.0037       1.2754
     -1.0500       0.0037       1.2758
     -1.0400       0.0037       1.2762
     -1.0300       0.0037       1.2766
     -1.0200       0.0038       1.2769
     -1.0100       0.0038       1.2773
     -1.0000       0.0038       1.2777
     -0.9900       0.0038       1.2781
     -0.9800       0.0038       1.2784
     -0.9700       0.0038       1.2788
     -0.9600       0.0038       1.2792
     -0.9500       0.0038       1.2796
     -0.9400       0.0038       1.2800
     -0.9300       0.0039       1.2804
     -0.9200       0.0039       1.2807
     -0.9100       0.0039       1.2811
     -0.9000       0.0039       1.2815
     -0.8900       0.0039       1.2819
     -0.8800       0.0039       1.2823
     -0.8700       0.0039       1.2827
     -0.8600       0.0039       1.2831
     -0.8500       0.0039       1.2835
     -0.8400       0.0040       1.2839
     -0.8300       0.0040       1.2843
     -0.8200       0.0040       1.2847
     -0.8100       0.0040       1.2851
     -0.8000       0.0040       1.2855
     -0.7900       0.0040       1.2859
     -0.7800       0.0040       1.2863
     -0.7700       0.0040       1.2867
     -0.7600       0.0041       1.2871
     -0.7500       0.0041       1.2875
     -0.7400       0.0041       1.2879
     -0.7300       0.0041       1.2883
     -0.7200       0.0041       1.2887
     -0.7100       0.0041       1.2891
     -0.7000       0.0041       1.2895
     -0.6900       0.0041       1.2899
     -0.6800       0.0042       1.2904
     -0.6700       0.0042       1.2908
     -0.6600       0.0042       1.2912
     -0.6500       0.0042       1.2916
     -0.6400       0.0042       1.2920
     -0.6300       0.0042       1.2924
     -0.6200       0.0042       1.2929
     -0.6100       0.0042       1.2933
     -0.6000       0.0043       1.2937
     -0.5900       0.0043       1.2941
     -0.5800       0.0043       1.2946
     -0.5700       0.0043       1.2950
     -0.5600       0.0043       1.2954
     -0.5500       0.0043       1.2959
     -0.5400       0.0043       1.2963
     -0.5300       0.0043       1.2967
     -0.5200       0.0044       1.2972
     -0.5100       0.0044       1.2976
     -0.5000       0.0044       1.2980
     -0.4900       0.0044       1.2985
     -0.4800       0.0044       1.2989
     -0.4700       0.0044       1.2994
     -0.4600       0.0044       1.2998
     -0.4500       0.0045       1.3002
     -0.4400       0.0045       1.3007
     -0.4300       0.0045       1.3011
     -0.4200       0.0045       1.3016
     -0.4100       0.0045       1.3020
     -0.4000       0.0045       1.3025
     -0.3900       0.0045       1.3029
     -0.3800       0.0046       1.3034
     -0.3700       0.0046       1.3039
     -0.3600       0.0046       1.3043
     -0.3500       0.0046       1.3048
     -0.3400       0.0046       1.3052
     -0.3300       0.0046       1.3057
     -0.3200       0.0046       1.3062
     -0.3100       0.0047       1.3066
     -0.3000       0.0047       1.3071
     -0.2900       0.0047       1.3076
     -0.2800       0.0047       1.3080
     -0.2700       0.0047       1.3085
     -0.2600       0.0047       1.3090
     -0.2500       0.0048       1.3095
     -0.2400       0.0048       1.3099
     -0.2300       0.0048       1.3104
     -0.2200       0.0048       1.3109
     -0.2100       0.0048       1.3114
     -0.2000       0.0048       1.3118
     -0.1900       0.0048       1.3123
     -0.1800       0.0049       1.3128
     -0.1700       0.0049       1.3133
     -0.1600       0.0049       1.3138
     -0.1500       0.0049       1.3143
     -0.1400       0.0049       1.3148
     -0.1300       0.0049       1.3153
     -0.1200       0.0050       1.3158
     -0.1100       0.0050       1.3163
     -0.1000       0.0050       1.3168
     -0.0900       0.0050       1.3173
     -0.0800       0.0050       1.3178
     -0.0700       0.0050       1.3183
     -0.0600       0.0051       1.3188
     -0.0500       0.0051       1.3193
     -0.0400       0.0051       1.3198
     -0.0300       0.0051       1.3203
     -0.0200       0.0051       1.3208
     -0.0100       0.0052       1.3213
      0.0000       0.0052       1.3218
      0.0100       0.0052       1.3224
      0.0200       0.0052       1.3229
      0.0300       0.0052       1.3234
      0.0400       0.0052       1.3239
      0.0500       0.0053       1.3244
      0.0600       0.0053       1.3250
      0.0700       0.0053       1.3255
      0.0800       0.0053       1.3260
      0.0900       0.0053       1.3266
      0.1000       0.0054       1.3271
      0.1100       0.0054       1.3276
      0.1200       0.0054       1.3282
      0.1300       0.0054       1.3287
      0.1400       0.0054       1.3293
      0.1500       0.0054       1.3298
      0.1600       0.0055       1.3303
      0.1700       0.0055       1.3309
      0.1800       0.0055       1.3314
      0.1900       0.0055       1.3320
      0.2000       0.0055       1.3325
      0.2100       0.0056       1.3331
      0.2200       0.0056       1.3337
      0.2300       0.0056       1.3342
      0.2400       0.0056       1.3348
      0.2500       0.0056       1.3353
      0.2600       0.0057       1.3359
      0.2700       0.0057       1.3365
      0.2800       0.0057       1.3370
      0.2900       0.0057       1.3376
      0.3000       0.0057       1.3382
      0.3100       0.0058       1.3388
      0.3200       0.0058       1.3393
      0.3300       0.0058       1.3399
      0.3400       0.0058       1.3405
      0.3500       0.0059       1.3411
      0.3600       0.0059       1.3417
      0.3700       0.0059       1.3423
      0.3800       0.0059       1.3428
      0.3900       0.0059       1.3434
      0.4000       0.0060       1.3440
      0.4100       0.0060       1.3446
      0.4200       0.0060       1.3452
      0.4300       0.0060       1.3458
      0.4400       0.0061       1.3464
      0.4500       0.0061       1.3470
      0.4600       0.0061       1.3476
      0.4700       0.0061       1.3483
      0.4800       0.0061       1.3489
      0.4900       0.0062       1.3495
      0.5000       0.0062       1.3501
      0.5100       0.0062       1.3507
      0.5200       0.0062       1.3513
      0.5300       0.0063       1.3520
      0.5400       0.0063       1.3526
      0.5500       0.0063       1.3532
      0.5600       0.0063       1.3539
      0.5700       0.0064       1.3545
      0.5800       0.0064       1.3551
      0.5900       0.0064       1.3558
      0.6000       0.0064       1.3564
      0.6100       0.0065       1.3571
      0.6200       0.0065       1.3577
      0.6300       0.0065       1.3584
      0.6400       0.0065       1.3590
      0.6500       0.0066       1.3597
      0.6600       0.0066       1.3603
      0.6700       0.0066       1.3610
      0.6800       0.0066       1.3616
      0.6900       0.0067       1.3623
      0.7000       0.0067       1.3630
      0.7100       0.0067       1.3636
      0.7200       0.0067       1.3643
      0.7300       0.0068       1.3650
      0.7400       0.0068       1.3657
      0.7500       0.0068       1.3663
      0.7600       0.0069       1.3670
      0.7700       0.0069       1.3677
      0.7800       0.0069       1.3684
      0.7900       0.0069       1.3691
      0.8000       0.0070       1.3698
      0.8100       0.0070       1.3705
      0.8200       0.0070       1.3712
      0.8300       0.0071       1.3719
      0.8400       0.0071       1.3726
      0.8500       0.0071       1.3733
      0.8600       0.0071       1.3740
      0.8700       0.0072       1.3747
      0.8800       0.0072       1.3755
      0.8900       0.0072       1.3762
      0.9000       0.0073       1.3769
      0.9100       0.0073       1.3776
      0.9200       0.0073       1.3784
      0.9300       0.0074       1.3791
      0.9400       0.0074       1.3798
      0.9500       0.0074       1.3806
      0.9600       0.0074       1.3813
      0.9700       0.0075       1.3821
      0.9800       0.0075       1.3828
      0.9900       0.0075       1.3836
      1.0000       0.0076       1.3843
      1.0100       0.0076       1.3851
      1.0200       0.0076       1.3858
      1.0300       0.0077       1.3866
      1.0400       0.0077       1.3874
      1.0500       0.0077       1.3881
      1.0600       0.0078       1.3889
      1.0700       0.0078       1.3897
      1.0800       0.0078       1.3905
      1.0900       0.0079       1.3913
      1.1000       0.0079       1.3920
      1.1100       0.0079       1.3928
      1.1200       0.0080       1.3936
      1.1300       0.0080       1.3944
      1.1400       0.0080       1.3952
      1.1500       0.0081       1.3960
      1.1600       0.0081       1.3968
      1.1700       0.0082       1.3977
      1.1800       0.0082       1.3985
      1.1900       0.0082       1.3993
      1.2000       0.0083       1.4001
      1.2100       0.0083       1.4009
      1.2200       0.0083       1.4018
      1.2300       0.0084       1.4026
      1.2400       0.0084       1.4035
      1.2500       0.0085       1.4043
      1.2600       0.0085       1.4051
      1.2700       0.0085       1.4060
      1.2800       0.0086       1.4068
      1.2900       0.0086       1.4077
      1.3000       0.0087       1.4086
      1.3100       0.0087       1.4094
      1.3200       0.0087       1.4103
      1.3300       0.0088       1.4112
      1.3400       0.0088       1.4121
      1.3500       0.0089       1.4129
      1.3600       0.0089       1.4138
      1.3700       0.0089       1.4147
      1.3800       0.0090       1.4156
      1.3900       0.0090       1.4165
      1.4000       0.0091       1.4174
      1.4100       0.0091       1.4183
      1.4200       0.0092       1.4192
      1.4300       0.0092       1.4202
      1.4400       0.0092       1.4211
      1.4500       0.0093       1.4220
      1.4600       0.0093       1.4229
      1.4700       0.0094       1.4239
      1.4800       0.0094       1.4248
      1.4900       0.0095       1.4257
      1.5000       0.0095       1.4267
      1.5100       0.0096       1.4276
      1.5200       0.0096       1.4286
      1.5300       0.0097       1.4296
      1.5400       0.0097       1.4305
      1.5500       0.0098       1.4315
      1.5600       0.0098       1.4325
      1.5700       0.0099       1.4335
      1.5800       0.0099       1.4345
      1.5900       0.0100       1.4354
     1.60000      0.01000      1.43644
     1.61000      0.01005      1.43744
     1.62000      0.01010      1.43845
     1.63000      0.01015      1.43946
     1.64000      0.01021      1.44047
     1.65000      0.01026      1.44150
     1.66000      0.01031      1.44252
     1.67000      0.01036      1.44355
     1.68000      0.01042      1.44459
     1.69000      0.01047      1.44563
     1.70000      0.01053      1.44668
     1.71000      0.01058      1.44774
     1.72000      0.01064      1.44880
     1.73000      0.01069      1.44986
     1.74000      0.01075      1.45093
     1.75000      0.01081      1.45201
     1.76000      0.01086      1.45309
     1.77000      0.01092      1.45418
     1.78000      0.01098      1.45527
     1.79000      0.01104      1.45637
     1.80000      0.01110      1.45747
     1.81000      0.01116      1.45859
     1.82000      0.01122      1.45970
     1.83000      0.01128      1.46083
     1.84000      0.01134      1.46195
     1.85000      0.01140      1.46309
     1.86000      0.01146      1.46423
     1.87000      0.01153      1.46538
     1.88000      0.01159      1.46653
     1.89000      0.01165      1.46769
     1.90000      0.01172      1.46886
     1.91000      0.01178      1.47003
     1.92000      0.01185      1.47121
     1.93000      0.01192      1.47240
     1.94000      0.01198      1.47359
     1.95000      0.01205      1.47479
     1.96000      0.01212      1.47600
     1.97000      0.01219      1.47721
     1.98000      0.01226      1.47843
     1.99000      0.01233      1.47966
     2.00000      0.01240      1.48089
     2.01000      0.01247      1.48213
     2.02000      0.01254      1.48338
     2.03000      0.01261      1.48464
     2.04000      0.01269      1.48590
     2.05000      0.01276      1.48717
     2.06000      0.01284      1.48845
     2.07000      0.01291      1.48973
     2.08000      0.01299      1.49103
     2.09000      0.01307      1.49233
     2.10000      0.01314      1.49363
     2.11000      0.01322      1.49495
     2.12000      0.01330      1.49627
     2.13000      0.01338      1.49760
     2.14000      0.01346      1.49894
     2.15000      0.01355      1.50029
     2.16000      0.01363      1.50165
     2.17000      0.01371      1.50301
     2.18000      0.01380      1.50438
     2.19000      0.01388      1.50577
     2.20000      0.01397      1.50716
     2.21000      0.01405      1.50855
     2.22000      0.01414      1.50996
     2.23000      0.01423      1.51138
     2.24000      0.01432      1.51280
     2.25000      0.01441      1.51423
     2.26000      0.01450      1.51568
     2.27000      0.01459      1.51713
     2.28000      0.01469      1.51859
     2.29000      0.01478      1.52006
     2.30000      0.01488      1.52154
     2.31000      0.01497      1.52303
     2.32000      0.01507      1.52453
     2.33000      0.01517      1.52603
     2.34000      0.01527      1.52755
     2.35000      0.01537      1.52908
     2.36000      0.01547      1.53062
     2.37000      0.01557      1.53217
     2.38000      0.01567      1.53372
     2.39000      0.01578      1.53529
     2.40000      0.01589      1.53687
     2.41000      0.01599      1.53846
     2.42000      0.01610      1.54006
     2.43000      0.01621      1.54167
     2.44000      0.01632      1.54330
     2.45000      0.01643      1.54493
     2.46000      0.01655      1.54658
     2.47000      0.01666      1.54823
     2.48000      0.01678      1.54990
     2.49000      0.01690      1.55158
     2.50000      0.01701      1.55327
     2.51000      0.01713      1.55497
     2.52000      0.01726      1.55669
     2.53000      0.01738      1.55841
     2.54000      0.01750      1.56015
     2.55000      0.01763      1.56190
     2.56000      0.01776      1.56367
     2.57000      0.01788      1.56544
     2.58000      0.01802      1.56723
     2.59000      0.01815      1.56904
     2.60000      0.01828      1.57085
     2.61000      0.01842      1.57268
     2.62000      0.01855      1.57453
     2.63000      0.01869      1.57638
     2.64000      0.01883      1.57825
     2.65000      0.01898      1.58014
     2.66000      0.01912      1.58204
     2.67000      0.01927      1.58395
     2.68000      0.01941      1.58588
     2.69000      0.01956      1.58782
     2.70000      0.01972      1.58978
     2.71000      0.01987      1.59175
     2.72000      0.02002      1.59374
     2.73000      0.02018      1.59574
     2.74000      0.02034      1.59776
     2.75000      0.02050      1.59979
     2.76000      0.02067      1.60184
     2.77000      0.02084      1.60391
     2.78000      0.02100      1.60600
     2.79000      0.02118      1.60810
     2.80000      0.02135      1.61021
     2.81000      0.02153      1.61235
     2.82000      0.02170      1.61450
     2.83000      0.02189      1.61667
     2.84000      0.02207      1.61886
     2.85000      0.02226      1.62107
     2.86000      0.02245      1.62330
     2.87000      0.02264      1.62554
     2.88000      0.02283      1.62780
     2.89000      0.02303      1.63009
     2.90000      0.02323      1.63239
     2.91000      0.02343      1.63471
     2.92000      0.02364      1.63706
     2.93000      0.02385      1.63942
     2.94000      0.02406      1.64180
     2.95000      0.02428      1.64421
     2.96000      0.02450      1.64664
     2.97000      0.02473      1.64909
     2.98000      0.02495      1.65156
     2.99000      0.02518      1.65405
     3.00000      0.02542      1.65657
     3.01000      0.02566      1.65911
     3.02000      0.02590      1.66168
     3.03000      0.02615      1.66426
     3.04000      0.02640      1.66688
     3.05000      0.02665      1.66951
     3.06000      0.02691      1.67218
     3.07000      0.02718      1.67487
     3.08000      0.02745      1.67758
     3.09000      0.02772      1.68032
     3.10000      0.02800      1.68309
     3.11000      0.02829      1.68589
     3.12000      0.02858      1.68871
     3.13000      0.02887      1.69157
     3.14000      0.02917      1.69445
     3.15000      0.02948      1.69736
     3.16000      0.02979      1.70031
     3.17000      0.03011      1.70328
     3.18000      0.03043      1.70629
     3.19000      0.03076      1.70932
     3.20000      0.03110      1.71239
     3.21000      0.03145      1.71550
     3.22000      0.03180      1.71863
     3.23000      0.03216      1.72181
     3.24000      0.03253      1.72501
     3.25000      0.03290      1.72826
     3.26000      0.03329      1.73154
     3.27000      0.03368      1.73486
     3.28000      0.03408      1.73821
     3.29000      0.03449      1.74161
     3.30000      0.03491      1.74505
     3.31000      0.03534      1.74853
     3.32000      0.03578      1.75205
     3.33000      0.03623      1.75561
     3.34000      0.03669      1.75922
     3.35000      0.03717      1.76287
     3.36000      0.03765      1.76657
     3.37000      0.03815      1.77031
     3.38000      0.03866      1.77411
     3.39000      0.03919      1.77795
     3.40000      0.03973      1.78185
     3.41000      0.04029      1.78580
     3.42000      0.04086      1.78980
     3.43000      0.04145      1.79386
     3.44000      0.04205      1.79797
     3.45000      0.04268      1.80214
     3.46000      0.04332      1.80637
     3.47000      0.04398      1.81067
     3.48000      0.04467      1.81503
     3.49000      0.04537      1.81945
     3.50000      0.04610      1.82394
     3.51000      0.04686      1.82850
     3.52000      0.04764      1.83313
     3.53000      0.04845      1.83784
     3.54000      0.04929      1.84262
     3.55000      0.05016      1.84748
     3.56000      0.05107      1.85242
     3.57000      0.05201      1.85745
     3.58000      0.05298      1.86256
     3.59000      0.05400      1.86776
     3.60000      0.05506      1.87306
     3.61000      0.05617      1.87846
     3.62000      0.05732      1.88395
     3.63000      0.05853      1.88955
     3.64000      0.05980      1.89526
     3.65000      0.06113      1.90108
     3.66000      0.06252      1.90702
     3.67000      0.06398      1.91308
     3.68000      0.06552      1.91927
     3.69000      0.06715      1.92559
     3.70000      0.06886      1.93205
     3.71000      0.07068      1.93866
     3.72000      0.07260      1.94541
     3.73000      0.07464      1.95233
     3.74000      0.07680      1.95941
     3.75000      0.07911      1.96665
     3.76000      0.08158      1.97408
     3.77000      0.08421      1.98170
     3.78000      0.08703      1.98951
     3.79000      0.09007      1.99753
     3.80000      0.09333      2.00576
     3.81000      0.09686      2.01421
    3.820000     0.100669     2.022896
    3.830000     0.104805     2.031815
    3.840000     0.109304     2.040980
    3.850000     0.114209     2.050394
    3.860000     0.119574     2.060063
    3.869999     0.125458     2.069984
    3.880000     0.131930     2.080158
    3.889999     0.139068     2.090570
    3.900000     0.146965     2.101206
    3.910001     0.155725     2.112034
    3.920000     0.165464     2.123008
    3.930001     0.176323     2.134065
    3.940000     0.188448     2.145106
    3.950001     0.202013     2.156003
    3.960000     0.217194     2.166571
    3.970001     0.234184     2.176568
    3.980000     0.253159     2.185663
    3.990001     0.274282     2.193434
    4.000000     0.297642     2.199333
    4.010001     0.323236     2.202686
    4.020000     0.350868     2.202689
    4.030001     0.380098     2.198447
    4.040000     0.410116     2.189054
    4.050001     0.439708     2.173727
    4.060000     0.467211     2.152036
    4.070001     0.490662     2.124119
    4.080000     0.508022     2.090911
    4.090001     0.517596     2.054158
    4.100000     0.518416     2.016266
    4.110001     0.510511     1.979856
    4.120000     0.494898     1.947311
    4.130001     0.473302     1.920334
    4.140000     0.447768     1.899815
    4.150001     0.420250     1.885859
    4.160000     0.392391     1.878008
    4.170001     0.365384     1.875473
    4.180000     0.340019     1.877344
    4.190001     0.316721     1.882730
    4.200000     0.295677     1.890836
    4.210001     0.276885     1.900997
    4.219999     0.260252     1.912673
    4.230000     0.245617     1.925448
    4.239999     0.232804     1.938999
    4.250000     0.221621     1.953092
    4.259999     0.211895     1.967544
    4.270000     0.203456     1.982233
    4.280001     0.196158     1.997068
    4.290000     0.189869     2.011983
    4.300001     0.184470     2.026942
    4.310000     0.179863     2.041915
    4.320001     0.175957     2.056892
    4.330000     0.172677     2.071864
    4.340001     0.169958     2.086834
    4.350000     0.167743     2.101803
    4.360001     0.165983     2.116785
    4.370000     0.164636     2.131783
    4.380001     0.163666     2.146818
    4.390000     0.163043     2.161894
    4.400001     0.162740     2.177032
    4.410000     0.162734     2.192241
    4.420001     0.163005     2.207541
    4.430000     0.163539     2.222942
    4.440001     0.164319     2.238464
    4.450000     0.165336     2.254117
    4.460001     0.166579     2.269921
    4.470000     0.168041     2.285887
    4.480000     0.169716     2.302036
    4.490000     0.171598     2.318377
    4.500000     0.173684     2.334932
    4.510000     0.175973     2.351710
    4.520000     0.178463     2.368734
    4.530000     0.181153     2.386013
    4.540000     0.184047     2.403571
    4.550000     0.187145     2.421417
    4.560000     0.190450     2.439576
    4.570000     0.193967     2.458058
    4.580000     0.197700     2.476888
    4.590000     0.201654     2.496078
    4.600000     0.205838     2.515653
    4.610000     0.210258     2.535627
    4.620000     0.214924     2.556027
    4.630001     0.219845     2.576870
    4.640000     0.225031     2.598176
    4.650001     0.230495     2.619974
    4.660000     0.236250     2.642282
    4.670001     0.242311     2.665130
    4.680000     0.248691     2.688539
    4.690001     0.255412     2.712544
    4.700000     0.262488     2.737164
    4.710001     0.269944     2.762439
    4.720000     0.277798     2.788393
    4.730001     0.286080     2.815066
    4.740000     0.294811     2.842486
    4.750001     0.304025     2.870699
    4.760000     0.313751     2.899734
    4.770001     0.324026     2.929644
    4.780000     0.334885     2.960461
    4.790001     0.346375     2.992244
    4.800000     0.358536     3.025028
    4.810000     0.371424     3.058880
    4.820000     0.385089     3.093842
    4.830000     0.399598     3.129984
    4.840000     0.415012     3.167358
    4.850000     0.431411     3.206042
    4.860000     0.448871     3.246091
    4.870000     0.467489     3.287596
    4.880000     0.487360     3.330620
    4.890000     0.508602     3.375262
    4.900000     0.531334     3.421597
    4.910000     0.555701     3.469733
    4.920000     0.581853     3.519754
    4.930000     0.609971     3.571780
    4.940000     0.640244     3.625907
    4.950000     0.672901     3.682267
    4.960000     0.708180     3.740962
    4.970000     0.746376     3.802135
    4.980000     0.787792     3.865897
    4.990000     0.832806     3.932396
    5.000001     0.881823     4.001754
    5.010000     0.935302     4.074086
    5.020001     0.993799     4.149534
    5.030000     1.057908     4.228182
    5.040001     1.128356     4.310140
    5.050000     1.205928     4.395436
    5.060001     1.291582     4.484105
    5.070000     1.386360     4.576060
    5.080001     1.491524     4.671178
    5.090000     1.608456     4.769150
    5.100001     1.738815     4.869549
    5.110000     1.884407     4.971647
    5.120001     2.047374     5.074453
    5.130000     2.230005     5.176477
    5.140001     2.434940     5.275717
    5.150000     2.664877     5.369347
    5.160001     2.922731     5.453631
    5.170000     3.211136     5.523537
    5.180001     3.532448     5.572580
    5.190000     3.887843     5.592493
    5.200001     4.276969     5.573153
    5.210000     4.696466     5.502721
    5.220001     5.139226     5.368226
    5.230000     5.592624     5.157062
    5.240001     6.038297     4.859091
    5.250000     6.451920     4.470062
    5.260001     6.805964     3.994526
    5.270000     7.073499     3.448568
    5.280000     7.234351     2.858840
    5.289999     7.280001     2.259461
    5.300000     7.216263     1.684830
    5.309999     7.061711     1.163485
    5.320000     6.842750     0.712616
    5.329999     6.587653     0.337366
     5.34000      6.32100      0.03198
    5.349999     6.060683    -0.216226
    5.360000     5.816294    -0.423338
    5.370001     5.589790    -0.605020
    5.380000     5.376827    -0.773810
    5.390001     5.168969    -0.937232
    5.400000     4.956769    -1.096793
    5.410001     4.732375    -1.248753
    5.420000     4.491989    -1.385804
    5.430001     4.236403    -1.499895
    5.440000     3.970607    -1.584511
    5.450001     3.701756    -1.636286
    5.460000     3.437583    -1.655156
    5.470001     3.184609    -1.643761
    5.480000     2.947742    -1.606366
    5.490001     2.729846    -1.547857
    5.500000     2.532298    -1.473057
    5.510001     2.355126    -1.386225
    5.520000     2.197668    -1.290971
    5.530001     2.058682    -1.190118
    5.540000     1.936798    -1.085883
    5.550001     1.830519    -0.979833
    5.560000     1.738494    -0.873132
    5.570001     1.659452    -0.766504
    5.580000     1.592368    -0.660468
    5.590001     1.536369    -0.555286
    5.600000     1.490819    -0.451171
    5.610001     1.455228    -0.348202
    5.620000     1.429297    -0.246493
    5.630001     1.412860    -0.146090
     5.64000      1.40591     -0.04712
     5.65000      1.40858      0.05031
    5.659999     1.421140     0.145966
    5.670001     1.444035     0.239561
    5.679999     1.477838     0.330601
    5.690001     1.523287     0.418440
    5.699999     1.581230     0.502096
    5.710001     1.652638     0.580265
    5.719999     1.738477     0.651114
    5.730000     1.839678     0.712258
    5.740001     1.956868     0.760548
    5.750000     2.090127     0.792023
    5.760001     2.238671     0.801876
    5.770000     2.400179     0.784562
    5.780001     2.570402     0.734179
    5.790000     2.742405     0.645259
    5.800001     2.906527     0.513885
    5.810000     3.050521     0.339344
    5.820001     3.161047     0.125439
    5.830000     3.225736    -0.118489
    5.840001     3.236010    -0.378381
    5.850000     3.189227    -0.637272
    5.860001     3.089380    -0.878732
    5.870000     2.946065    -1.089526
    5.880001     2.771936    -1.261699
    5.890000     2.580215    -1.392506
    5.900001     2.382433    -1.483624
    5.910000     2.187608    -1.539427
    5.920001     2.001804    -1.565641
    5.930000     1.828731    -1.568168
    5.940001     1.670073    -1.552458
    5.950000     1.526293    -1.523197
    5.960001     1.396910    -1.484200
    5.970000     1.281044    -1.438505
    5.980000     1.177502    -1.388422
    5.990000     1.085084    -1.335730
    6.000000     1.002550    -1.281715
    6.010000     0.928790    -1.227347
    6.020000     0.862742    -1.173295
    6.030000     0.803501    -1.120058
    6.040000     0.750226    -1.067948
    6.050000     0.702213    -1.017202
    6.060000     0.658819    -0.967938
    6.070000     0.619509    -0.920248
    6.080000     0.583794    -0.874147
    6.089999     0.551274    -0.829651
    6.100000     0.521576    -0.786723
    6.110001     0.494393    -0.745335
    6.120000     0.469457    -0.705445
    6.130001     0.446520    -0.666989
    6.140000     0.425382    -0.629920
    6.150001     0.405852    -0.594169
    6.160000     0.387777    -0.559687
    6.170001     0.371009    -0.526407
    6.180000     0.355429    -0.494280
    6.190001     0.340920    -0.463242
    6.200000     0.327391    -0.433250
    6.210001     0.314748    -0.404244
    6.220000     0.302919    -0.376182
    6.230001     0.291831    -0.349013
    6.240000     0.281424    -0.322701
    6.250000     0.271640    -0.297196
    6.260000     0.262433    -0.272466
    6.270000     0.253753    -0.248468
    6.280000     0.245563    -0.225174
    6.290000     0.237825    -0.202543
    6.300000     0.230506    -0.180553
    6.310000     0.223574    -0.159167
    6.320000     0.217004    -0.138364
    6.330000     0.210769    -0.118111
     6.34000      0.20485     -0.09839
     6.35000      0.19922     -0.07917
     6.36000      0.19386     -0.06044
     6.37000      0.18876     -0.04217
     6.38000      0.18390     -0.02434
      6.3900       0.1793      -0.0069
     6.40000      0.17484      0.01005
     6.41000      0.17061      0.02666
     6.42000      0.16657      0.04289
     6.43000      0.16270      0.05877
     6.44000      0.15901      0.07429
     6.45000      0.15547      0.08949
    6.460001     0.152073     0.104372
    6.470000     0.148822     0.118945
    6.480001     0.145703     0.133226
    6.490000     0.142712     0.147222
    6.500001     0.139841     0.160949
    6.510000     0.137084     0.174412
    6.520001     0.134436     0.187625
    6.530000     0.131892     0.200594
    6.540001     0.129447     0.213331
    6.550000     0.127097     0.225841
    6.560001     0.124837     0.238137
    6.570000     0.122663     0.250222
    6.580001     0.120572     0.262108
    6.590000     0.118561     0.273798
    6.600001     0.116626     0.285303
    6.610000     0.114765     0.296627
    6.620001     0.112975     0.307778
    6.630000     0.111252     0.318761
    6.640001     0.109595     0.329584
    6.650000     0.108003     0.340249
    6.660001     0.106471     0.350768
    6.670000     0.104999     0.361140
    6.680001     0.103586     0.371375
    6.690000     0.102228     0.381475
    6.700000     0.100926     0.391448
     6.71000      0.09968      0.40130
     6.72000      0.09848      0.41103
     6.73000      0.09734      0.42064
     6.74000      0.09625      0.43015
     6.75000      0.09520      0.43955
     6.76000      0.09421      0.44885
     6.77000      0.09327      0.45805
     6.78000      0.09237      0.46717
     6.79000      0.09153      0.47619
     6.80000      0.09073      0.48513
     6.81000      0.08999      0.49399
     6.82000      0.08929      0.50278
     6.83000      0.08865      0.51149
     6.84000      0.08806      0.52013
     6.85000      0.08753      0.52872
     6.86000      0.08705      0.53724
     6.87000      0.08663      0.54570
     6.88000      0.08627      0.55411
     6.89000      0.08597      0.56248
     6.90000      0.08575      0.57079
     6.91000      0.08560      0.57907
     6.92000      0.08553      0.58730
     6.93000      0.08554      0.59550
     6.94000      0.08565      0.60366
     6.95000      0.08586      0.61179
     6.96000      0.08618      0.61988
     6.97000      0.08662      0.62794
     6.98000      0.08721      0.63595
     6.99000      0.08794      0.64392
     7.00000      0.08885      0.65184
     7.01000      0.08995      0.65969
     7.02000      0.09125      0.66746
     7.03000      0.09279      0.67510
     7.04000      0.09457      0.68260
     7.05000      0.09663      0.68990
     7.06000      0.09896      0.69693
    7.070001     0.101556     0.703628
    7.079999     0.104398     0.709894
    7.090001     0.107424     0.715632
    7.099999     0.110534     0.720745
    7.110001     0.113579     0.725155
    7.119999     0.116365     0.728830
    7.130001     0.118667     0.731809
    7.139999     0.120264     0.734221
    7.150000     0.120984     0.736287
    7.159999     0.120747     0.738286
    7.170000     0.119585     0.740514
    7.179999     0.117638     0.743222
    7.190000     0.115110     0.746581
    7.200001     0.112234     0.750670
    7.210000     0.109221     0.755484
    7.220001     0.106244     0.760963
    7.230000     0.103426     0.767018
    7.240001     0.100844     0.773549
     7.25000      0.09854      0.78046
     7.26000      0.09653      0.78768
     7.27000      0.09482      0.79513
     7.28000      0.09339      0.80276
     7.29000      0.09223      0.81053
     7.30000      0.09132      0.81841
     7.31000      0.09065      0.82638
     7.32000      0.09019      0.83444
     7.33000      0.08993      0.84256
     7.34000      0.08987      0.85075
     7.35000      0.08999      0.85900
     7.36000      0.09029      0.86732
     7.37000      0.09075      0.87571
     7.38000      0.09139      0.88417
     7.39000      0.09219      0.89272
     7.40000      0.09316      0.90135
     7.41000      0.09430      0.91007
     7.42000      0.09561      0.91890
     7.43000      0.09712      0.92785
     7.44000      0.09881      0.93691
    7.450000     0.100707     0.946115
    7.460001     0.102822     0.955462
    7.470000     0.105169     0.964964
    7.480000     0.107769     0.974636
    7.490000     0.110641     0.984488
    7.500000     0.113811     0.994535
    7.510000     0.117308     1.004787
    7.520000     0.121166     1.015262
    7.529999     0.125421     1.025969
    7.540000     0.130119     1.036924
    7.549999     0.135308     1.048135
    7.560000     0.141049     1.059618
    7.570001     0.147408     1.071378
    7.580000     0.154461     1.083420
    7.590001     0.162299     1.095748
    7.600000     0.171022     1.108354
    7.610001     0.180754     1.121226
    7.620000     0.191626     1.134336
    7.630001     0.203799     1.147642
    7.640000     0.217451     1.161075
    7.650001     0.232789     1.174541
    7.660000     0.250039     1.187896
    7.670001     0.269463     1.200951
    7.680000     0.291331     1.213433
    7.690001     0.315940     1.224984
    7.700000     0.343568     1.235115
    7.710001     0.374473     1.243196
    7.720000     0.408817     1.248410
    7.730000     0.446627     1.249747
    7.740000     0.487654     1.245991
    7.750000     0.531297     1.235770
    7.760000     0.576402     1.217666
    7.770000     0.621203     1.190411
    7.780000     0.663232     1.153217
    7.790000     0.699503     1.106114
    7.800000     0.726834     1.050328
    7.810000     0.742459     0.988349
    7.820000     0.744643     0.923776
    7.830000     0.733151     0.860657
    7.840000     0.709315     0.802808
    7.850000     0.675661     0.753072
    7.860000     0.635320     0.713054
    7.870000     0.591380     0.683098
    7.880000     0.546489     0.662621
    7.890000     0.502616     0.650455
    7.900000     0.461090     0.645204
    7.910000     0.422654     0.645464
    7.920000     0.387652     0.649970
    7.930000     0.356120     0.657651
    7.940001     0.327930     0.667636
    7.950000     0.302854     0.679240
    7.960001     0.280606     0.691942
    7.970000     0.260903     0.705345
    7.980001     0.243458     0.719159
    7.990000     0.228016     0.733169
    8.000001     0.214334     0.747224
    8.010000     0.202205     0.761214
    8.020000     0.191441     0.775070
    8.030000     0.181881     0.788739
    8.040001     0.173383     0.802196
    8.050000     0.165827     0.815421
    8.060000     0.159104     0.828412
    8.070000     0.153126     0.841166
    8.080001     0.147812     0.853693
    8.090000     0.143095     0.866001
    8.100000     0.138917     0.878104
    8.110000     0.135228     0.890013
    8.120001     0.131984     0.901748
    8.130000     0.129150     0.913319
    8.140000     0.126693     0.924748
    8.150000     0.124587     0.936047
    8.160001     0.122810     0.947235
    8.170000     0.121344     0.958325
    8.180000     0.120174     0.969336
    8.190000     0.119289     0.980282
    8.200001     0.118679     0.991181
    8.210000     0.118341     1.002044
    8.220000     0.118272     1.012891
    8.230000     0.118471     1.023732
    8.240001     0.118943     1.034585
    8.249999     0.119693     1.045462
    8.260000     0.120730     1.056379
    8.270000     0.122067     1.067346
    8.280001     0.123721     1.078378
    8.290001     0.125710     1.089486
    8.300000     0.128060     1.100676
    8.310001     0.130799     1.111962
    8.320000     0.133959     1.123343
    8.330001     0.137582     1.134827
    8.340000     0.141709     1.146406
    8.350001     0.146392     1.158077
    8.360000     0.151685     1.169819
    8.370001     0.157648     1.181613
    8.380000     0.164342     1.193421
    8.390000     0.171833     1.205201
    8.400000     0.180182     1.216895
    8.410001     0.189455     1.228444
    8.420000     0.199712     1.239776
    8.430000     0.211027     1.250825
    8.440000     0.223481     1.261508
    8.450001     0.237194     1.271737
    8.460000     0.252315     1.281375
    8.470000     0.269032     1.290223
    8.480000     0.287540     1.297971
    8.490001     0.308016     1.304178
    8.500000     0.330539     1.308245
    8.510000     0.355045     1.309426
    8.520000     0.381206     1.306854
    8.530001     0.408377     1.299623
    8.540000     0.435484     1.286915
    8.550000     0.461042     1.268188
    8.559999     0.483198     1.243429
    8.570001     0.499990     1.213332
    8.580000     0.509673     1.179416
    8.590000     0.511144     1.143860
    8.599999     0.504212     1.109186
    8.610001     0.489663     1.077743
    8.620000     0.469042     1.051336
    8.630000     0.444268     1.030971
    8.639999     0.417269     1.016897
    8.650001     0.389681     1.008761
    8.660001     0.362745     1.005855
    8.670000     0.337294     1.007313
    8.680001     0.313795     1.012270
    8.690001     0.292468     1.019936
    8.700001     0.273337     1.029647
    8.710000     0.256329     1.040859
    8.720001     0.241293     1.053151
    8.730000     0.228062     1.066196
    8.740001     0.216452     1.079751
    8.750000     0.206290     1.093634
    8.760001     0.197412     1.107719
    8.770000     0.189673     1.121908
    8.780001     0.182938     1.136141
    8.790000     0.177094     1.150373
    8.800001     0.172039     1.164580
    8.809999     0.167687     1.178743
    8.820001     0.163960     1.192860
    8.830000     0.160795     1.206926
    8.840000     0.158135     1.220952
    8.849999     0.155932     1.234939
    8.860001     0.154143     1.248903
    8.870000     0.152735     1.262852
    8.880000     0.151676     1.276802
    8.889999     0.150940     1.290764
    8.900001     0.150506     1.304755
    8.910000     0.150355     1.318788
    8.920000     0.150472     1.332881
    8.929999     0.150843     1.347045
    8.940001     0.151458     1.361300
    8.950000     0.152308     1.375658
    8.960000     0.153388     1.390139
    8.969999     0.154692     1.404752
    8.980000     0.156218     1.419521
    8.990000     0.157964     1.434456
    9.000000     0.159930     1.449579
    9.009999     0.162117     1.464900
    9.020000     0.164528     1.480443
    9.030001     0.167168     1.496223
    9.040000     0.170041     1.512255
    9.050001     0.173154     1.528562
    9.060000     0.176516     1.545159
    9.070001     0.180137     1.562070
    9.080000     0.184027     1.579311
    9.090001     0.188200     1.596909
    9.100000     0.192670     1.614879
    9.110001     0.197454     1.633252
    9.120000     0.202570     1.652045
    9.130001     0.208039     1.671289
    9.140000     0.213885     1.691004
    9.150001     0.220133     1.711226
    9.160000     0.226813     1.731976
    9.170001     0.233958     1.753292
    9.180000     0.241602     1.775199
    9.190001     0.249789     1.797738
    9.200000     0.258561     1.820937
    9.210001     0.267973     1.844842
    9.219999     0.278078     1.869482
    9.230000     0.288945     1.894908
    9.240000     0.300643     1.921153
    9.250001     0.313256     1.948268
    9.259999     0.326875     1.976292
    9.270000     0.341607     2.005279
    9.280000     0.357568     2.035265
    9.290000     0.374899     2.066308
    9.299999     0.393748     2.098440
    9.310000     0.414299     2.131712
    9.320000     0.436747     2.166151
    9.330000     0.461331     2.201794
    9.339999     0.488310     2.238643
    9.350000     0.517996     2.276708
    9.360000     0.550732     2.315947
    9.370000     0.586929     2.356307
    9.379999     0.627034     2.397661
    9.390000     0.671584     2.439840
    9.400001     0.721160     2.482567
    9.410000     0.776412     2.525438
    9.420001     0.838079     2.567909
    9.430000     0.906908     2.609197
    9.440001     0.983707     2.648274
    9.450000     1.069188     2.683735
    9.460001     1.163976     2.713785
    9.470000     1.268343     2.736124
    9.480000     1.382107     2.747957
    9.490000     1.504214     2.746024
    9.500001     1.632524     2.726808
    9.510000     1.763326     2.686953
    9.520000     1.891302     2.623910
    9.530000     2.009505     2.536881
    9.540001     2.110184     2.427663
    9.550000     2.185901     2.301335
    9.560000     2.231273     2.165954
    9.570000     2.244299     2.031589
    9.580001     2.227033     1.908338
    9.590000     2.185088     1.804635
    9.600000     2.126268     1.725868
    9.610000     2.059005     1.674223
    9.620001     1.990976     1.649090
    9.630000     1.928456     1.648028
    9.640000     1.876056     1.667624
    9.650000     1.836981     1.704188
    9.660001     1.813309     1.754195
    9.669999     1.806407     1.814431
    9.680000     1.817222     1.882082
    9.690000     1.846523     1.954588
    9.700001     1.895089     2.029600
    9.709999     1.963770     2.104728
    9.720000     2.053581     2.177452
    9.730000     2.165598     2.244827
    9.740000     2.300979     2.303358
    9.750001     2.460658     2.348704
    9.760000     2.645082     2.375508
    9.770001     2.853855     2.377259
    9.780000     3.084882     2.346273
    9.790001     3.333830     2.273961
    9.800000     3.592956     2.151603
    9.810000     3.850721     1.971563
    9.820000     4.091319     1.729410
    9.830001     4.295961     1.425978
    9.840000     4.444963     1.069641
    9.850000     4.521639     0.676501
    9.860000     4.516019     0.269235
    9.870001     4.427544    -0.127164
    9.880000     4.265208    -0.489602
    9.890000     4.045015    -0.801293
    9.900000     3.786330    -1.053128
    9.910001     3.507889    -1.243656
    9.920000     3.225582    -1.376886
    9.930000     2.951040    -1.460223
    9.940000     2.692030    -1.502285
    9.950001     2.452781    -1.511630
    9.960000     2.235179    -1.495914
    9.970000     2.039277    -1.461584
    9.980000     1.864217    -1.413863
    9.990001     1.708456    -1.356811
    10.00000      1.57030     -1.29356
# 
# 04/09/2018 at 16:08 YAMBO @ narro [start]
# 04/09/2018 at 16:08               [end]
#  
# Timing   [Min/Max/Average]: 07s/07s/07s
#
# .-Input file : yambo.in
# | optics                         # [R OPT] Optics
# | bse                            # [R BSE] Bethe Salpeter Equation.
# | BoseTemp= 0.000000     eV      # Bosonic Temperature
# | FFTGvecs=  3473        RL      # [FFT] Plane-waves
# | BSEmod= "resonant"             # [BSE] resonant/retarded/coupling
# | BSKmod= "IP"                   # [BSE] IP/Hartree/HF/ALDA/SEX/BSfxc
# | % BEnRange
# | -10.00000 | 10.00000 | eV      # [BSS] Energy range
# | %
# | % BDmRange
# |   0.10000 |  0.10000 | eV      # [BSS] Damping range
# | %
# | BEnSteps= 2001                 # [BSS] Energy steps
# | % BLongDir
# | 0.1000E-4 | 0.000    | 0.000    |        # [BSS] [cc] Electric Field
# | %
# | % BSEQptR
# |   1 |  4 |                     # [BSK] Transferred momenta range
# | %
# | % BSEBands
# |   1 | 10 |                     # [BSK] Bands range
# | %
