#                                                           
# ooooo   oooo ..     ooo        ooo ooooooooo.    .oooo.   
#  `88.   .8" .88.    `88.       .88 `88"   `Y8b  dP"  `Yb  
#   `88. .8" .8"88.    888b     d"88  88     888 88      88 
#    `88.8" .8" `88.   8 Y88. .P  88  88oooo888" 88      88 
#     `88" .88ooo888.  8  `888"   88  88    `88b 88      88 
#      88 .8"     `88. 8    Y     88  88    .88P `8b    d8" 
#     o88o88o      888o8          88 o88bood8P"   `Ybod8P"  
#                                                           
#                                                           
#        Version 4.4.0 Revision 16741 Hash d917b3d70        
#               Branch is devel-BSE-finite-q                
#                   MPI+SLK+OpenMP Build                    
#                 http://www.yambo-code.org                 
#
# Absorption @ Q(4) [iku] : 0.500000  0.250000  0.500000
#
#
# - Energies      are Teter 93(XC)
# - Wavefunctions are Teter 93(XC)
#
# - The Green`s function is Resonant -
#
#
#    E/ev[1]      EPS-Im[2]    EPS-Re[3]    EPSo-Im[4]   EPSo-Re[5]
#
   -10.00       0.1572E-4     1.002       0.6101E-3     1.105   
   -9.990       0.1574E-4     1.002       0.6108E-3     1.105   
   -9.980       0.1577E-4     1.002       0.6116E-3     1.105   
   -9.970       0.1579E-4     1.002       0.6123E-3     1.105   
   -9.960       0.1582E-4     1.002       0.6130E-3     1.105   
   -9.950       0.1584E-4     1.002       0.6138E-3     1.105   
   -9.940       0.1587E-4     1.002       0.6145E-3     1.105   
   -9.930       0.1589E-4     1.002       0.6152E-3     1.105   
   -9.920       0.1592E-4     1.002       0.6159E-3     1.105   
   -9.910       0.1594E-4     1.002       0.6167E-3     1.105   
   -9.900       0.1597E-4     1.002       0.6174E-3     1.105   
   -9.890       0.1599E-4     1.002       0.6182E-3     1.105   
   -9.880       0.1602E-4     1.002       0.6189E-3     1.105   
   -9.870       0.1604E-4     1.002       0.6196E-3     1.105   
   -9.860       0.1607E-4     1.002       0.6204E-3     1.105   
   -9.850       0.1609E-4     1.002       0.6211E-3     1.106   
   -9.840       0.1612E-4     1.002       0.6219E-3     1.106   
   -9.830       0.1614E-4     1.002       0.6226E-3     1.106   
   -9.820       0.1617E-4     1.002       0.6234E-3     1.106   
   -9.810       0.1620E-4     1.002       0.6241E-3     1.106   
   -9.800       0.1622E-4     1.002       0.6249E-3     1.106   
   -9.790       0.1625E-4     1.002       0.6256E-3     1.106   
   -9.780       0.1627E-4     1.002       0.6264E-3     1.106   
   -9.770       0.1630E-4     1.002       0.6271E-3     1.106   
   -9.760       0.1633E-4     1.002       0.6279E-3     1.106   
   -9.750       0.1635E-4     1.002       0.6286E-3     1.106   
   -9.740       0.1638E-4     1.002       0.6294E-3     1.106   
   -9.730       0.1640E-4     1.002       0.6301E-3     1.106   
   -9.720       0.1643E-4     1.002       0.6309E-3     1.106   
   -9.710       0.1646E-4     1.002       0.6317E-3     1.106   
   -9.700       0.1648E-4     1.002       0.6324E-3     1.106   
   -9.690       0.1651E-4     1.002       0.6332E-3     1.107   
   -9.680       0.1654E-4     1.002       0.6340E-3     1.107   
   -9.670       0.1656E-4     1.002       0.6347E-3     1.107   
   -9.660       0.1659E-4     1.002       0.6355E-3     1.107   
   -9.650       0.1662E-4     1.002       0.6363E-3     1.107   
   -9.640       0.1664E-4     1.002       0.6370E-3     1.107   
   -9.630       0.1667E-4     1.002       0.6378E-3     1.107   
   -9.620       0.1670E-4     1.002       0.6386E-3     1.107   
   -9.610       0.1672E-4     1.002       0.6394E-3     1.107   
   -9.600       0.1675E-4     1.002       0.6401E-3     1.107   
   -9.590       0.1678E-4     1.002       0.6409E-3     1.107   
   -9.580       0.1681E-4     1.002       0.6417E-3     1.107   
   -9.570       0.1683E-4     1.002       0.6425E-3     1.107   
   -9.560       0.1686E-4     1.002       0.6433E-3     1.107   
   -9.550       0.1689E-4     1.002       0.6441E-3     1.107   
   -9.540       0.1692E-4     1.002       0.6448E-3     1.107   
   -9.530       0.1694E-4     1.002       0.6456E-3     1.108   
   -9.520       0.1697E-4     1.002       0.6464E-3     1.108   
   -9.510       0.1700E-4     1.002       0.6472E-3     1.108   
   -9.500       0.1703E-4     1.002       0.6480E-3     1.108   
   -9.490       0.1705E-4     1.002       0.6488E-3     1.108   
   -9.480       0.1708E-4     1.002       0.6496E-3     1.108   
   -9.470       0.1711E-4     1.002       0.6504E-3     1.108   
   -9.460       0.1714E-4     1.002       0.6512E-3     1.108   
   -9.450       0.1717E-4     1.002       0.6520E-3     1.108   
   -9.440       0.1720E-4     1.002       0.6528E-3     1.108   
   -9.430       0.1722E-4     1.002       0.6536E-3     1.108   
   -9.420       0.1725E-4     1.002       0.6544E-3     1.108   
   -9.410       0.1728E-4     1.002       0.6552E-3     1.108   
   -9.400       0.1731E-4     1.002       0.6560E-3     1.108   
   -9.390       0.1734E-4     1.002       0.6568E-3     1.108   
   -9.380       0.1737E-4     1.002       0.6576E-3     1.109   
   -9.370       0.1739E-4     1.002       0.6584E-3     1.109   
   -9.360       0.1742E-4     1.002       0.6593E-3     1.109   
   -9.350       0.1745E-4     1.002       0.6601E-3     1.109   
   -9.340       0.1748E-4     1.002       0.6609E-3     1.109   
   -9.330       0.1751E-4     1.002       0.6617E-3     1.109   
   -9.320       0.1754E-4     1.002       0.6625E-3     1.109   
   -9.310       0.1757E-4     1.002       0.6633E-3     1.109   
   -9.300       0.1760E-4     1.002       0.6642E-3     1.109   
   -9.290       0.1763E-4     1.002       0.6650E-3     1.109   
   -9.280       0.1766E-4     1.002       0.6658E-3     1.109   
   -9.270       0.1769E-4     1.002       0.6666E-3     1.109   
   -9.260       0.1772E-4     1.002       0.6675E-3     1.109   
   -9.250       0.1774E-4     1.002       0.6683E-3     1.109   
   -9.240       0.1777E-4     1.002       0.6691E-3     1.109   
   -9.230       0.1780E-4     1.002       0.6700E-3     1.110   
   -9.220       0.1783E-4     1.002       0.6708E-3     1.110   
   -9.210       0.1786E-4     1.002       0.6716E-3     1.110   
   -9.200       0.1789E-4     1.002       0.6725E-3     1.110   
   -9.190       0.1792E-4     1.002       0.6733E-3     1.110   
   -9.180       0.1795E-4     1.002       0.6742E-3     1.110   
   -9.170       0.1798E-4     1.002       0.6750E-3     1.110   
   -9.160       0.1801E-4     1.002       0.6759E-3     1.110   
   -9.150       0.1804E-4     1.002       0.6767E-3     1.110   
   -9.140       0.1807E-4     1.002       0.6775E-3     1.110   
   -9.130       0.1811E-4     1.002       0.6784E-3     1.110   
   -9.120       0.1814E-4     1.002       0.6792E-3     1.110   
   -9.110       0.1817E-4     1.002       0.6801E-3     1.110   
   -9.100       0.1820E-4     1.002       0.6810E-3     1.110   
   -9.090       0.1823E-4     1.002       0.6818E-3     1.110   
   -9.080       0.1826E-4     1.002       0.6827E-3     1.111   
   -9.070       0.1829E-4     1.002       0.6835E-3     1.111   
   -9.060       0.1832E-4     1.002       0.6844E-3     1.111   
   -9.050       0.1835E-4     1.002       0.6853E-3     1.111   
   -9.040       0.1838E-4     1.002       0.6861E-3     1.111   
   -9.030       0.1841E-4     1.002       0.6870E-3     1.111   
   -9.020       0.1845E-4     1.002       0.6879E-3     1.111   
   -9.010       0.1848E-4     1.002       0.6887E-3     1.111   
   -9.000       0.1851E-4     1.002       0.6896E-3     1.111   
   -8.990       0.1854E-4     1.002       0.6905E-3     1.111   
   -8.980       0.1857E-4     1.002       0.6913E-3     1.111   
   -8.970       0.1860E-4     1.002       0.6922E-3     1.111   
   -8.960       0.1864E-4     1.002       0.6931E-3     1.111   
   -8.950       0.1867E-4     1.002       0.6940E-3     1.111   
   -8.940       0.1870E-4     1.002       0.6949E-3     1.112   
   -8.930       0.1873E-4     1.002       0.6957E-3     1.112   
   -8.920       0.1876E-4     1.002       0.6966E-3     1.112   
   -8.910       0.1880E-4     1.002       0.6975E-3     1.112   
   -8.900       0.1883E-4     1.002       0.6984E-3     1.112   
   -8.890       0.1886E-4     1.002       0.6993E-3     1.112   
   -8.880       0.1889E-4     1.002       0.7002E-3     1.112   
   -8.870       0.1893E-4     1.002       0.7011E-3     1.112   
   -8.860       0.1896E-4     1.002       0.7020E-3     1.112   
   -8.850       0.1899E-4     1.002       0.7029E-3     1.112   
   -8.840       0.1902E-4     1.002       0.7038E-3     1.112   
   -8.830       0.1906E-4     1.002       0.7047E-3     1.112   
   -8.820       0.1909E-4     1.002       0.7056E-3     1.112   
   -8.810       0.1912E-4     1.002       0.7065E-3     1.112   
   -8.800       0.1916E-4     1.002       0.7074E-3     1.112   
   -8.790       0.1919E-4     1.002       0.7083E-3     1.113   
   -8.780       0.1922E-4     1.002       0.7092E-3     1.113   
   -8.770       0.1926E-4     1.002       0.7101E-3     1.113   
   -8.760       0.1929E-4     1.002       0.7110E-3     1.113   
   -8.750       0.1932E-4     1.002       0.7119E-3     1.113   
   -8.740       0.1936E-4     1.002       0.7129E-3     1.113   
   -8.730       0.1939E-4     1.002       0.7138E-3     1.113   
   -8.720       0.1942E-4     1.002       0.7147E-3     1.113   
   -8.710       0.1946E-4     1.002       0.7156E-3     1.113   
   -8.700       0.1949E-4     1.002       0.7165E-3     1.113   
   -8.690       0.1953E-4     1.002       0.7175E-3     1.113   
   -8.680       0.1956E-4     1.002       0.7184E-3     1.113   
   -8.670       0.1960E-4     1.002       0.7193E-3     1.113   
   -8.660       0.1963E-4     1.002       0.7202E-3     1.113   
   -8.650       0.1966E-4     1.002       0.7212E-3     1.114   
   -8.640       0.1970E-4     1.002       0.7221E-3     1.114   
   -8.630       0.1973E-4     1.002       0.7231E-3     1.114   
   -8.620       0.1977E-4     1.002       0.7240E-3     1.114   
   -8.610       0.1980E-4     1.002       0.7249E-3     1.114   
   -8.600       0.1984E-4     1.002       0.7259E-3     1.114   
   -8.590       0.1987E-4     1.002       0.7268E-3     1.114   
   -8.580       0.1991E-4     1.002       0.7278E-3     1.114   
   -8.570       0.1994E-4     1.002       0.7287E-3     1.114   
   -8.560       0.1998E-4     1.002       0.7297E-3     1.114   
   -8.550       0.2001E-4     1.002       0.7306E-3     1.114   
   -8.540       0.2005E-4     1.002       0.7316E-3     1.114   
   -8.530       0.2009E-4     1.002       0.7325E-3     1.114   
   -8.520       0.2012E-4     1.002       0.7335E-3     1.115   
   -8.510       0.2016E-4     1.002       0.7344E-3     1.115   
   -8.500       0.2019E-4     1.002       0.7354E-3     1.115   
   -8.490       0.2023E-4     1.002       0.7364E-3     1.115   
   -8.480       0.2027E-4     1.002       0.7373E-3     1.115   
   -8.470       0.2030E-4     1.002       0.7383E-3     1.115   
   -8.460       0.2034E-4     1.002       0.7393E-3     1.115   
   -8.450       0.2037E-4     1.002       0.7402E-3     1.115   
   -8.440       0.2041E-4     1.002       0.7412E-3     1.115   
   -8.430       0.2045E-4     1.002       0.7422E-3     1.115   
   -8.420       0.2048E-4     1.002       0.7432E-3     1.115   
   -8.410       0.2052E-4     1.002       0.7441E-3     1.115   
   -8.400       0.2056E-4     1.002       0.7451E-3     1.115   
   -8.390       0.2059E-4     1.002       0.7461E-3     1.115   
   -8.380       0.2063E-4     1.002       0.7471E-3     1.116   
   -8.370       0.2067E-4     1.002       0.7481E-3     1.116   
   -8.360       0.2071E-4     1.002       0.7491E-3     1.116   
   -8.350       0.2074E-4     1.002       0.7501E-3     1.116   
   -8.340       0.2078E-4     1.002       0.7510E-3     1.116   
   -8.330       0.2082E-4     1.002       0.7520E-3     1.116   
   -8.320       0.2086E-4     1.002       0.7530E-3     1.116   
   -8.310       0.2089E-4     1.002       0.7540E-3     1.116   
   -8.300       0.2093E-4     1.002       0.7550E-3     1.116   
   -8.290       0.2097E-4     1.002       0.7560E-3     1.116   
   -8.280       0.2101E-4     1.002       0.7570E-3     1.116   
   -8.270       0.2105E-4     1.002       0.7580E-3     1.116   
   -8.260       0.2108E-4     1.002       0.7591E-3     1.116   
   -8.250       0.2112E-4     1.002       0.7601E-3     1.117   
   -8.240       0.2116E-4     1.002       0.7611E-3     1.117   
   -8.230       0.2120E-4     1.002       0.7621E-3     1.117   
   -8.220       0.2124E-4     1.002       0.7631E-3     1.117   
   -8.210       0.2128E-4     1.002       0.7641E-3     1.117   
   -8.200       0.2132E-4     1.002       0.7652E-3     1.117   
   -8.190       0.2136E-4     1.002       0.7662E-3     1.117   
   -8.180       0.2139E-4     1.002       0.7672E-3     1.117   
   -8.170       0.2143E-4     1.002       0.7682E-3     1.117   
   -8.160       0.2147E-4     1.002       0.7693E-3     1.117   
   -8.150       0.2151E-4     1.002       0.7703E-3     1.117   
   -8.140       0.2155E-4     1.002       0.7713E-3     1.117   
   -8.130       0.2159E-4     1.002       0.7724E-3     1.117   
   -8.120       0.2163E-4     1.002       0.7734E-3     1.118   
   -8.110       0.2167E-4     1.002       0.7744E-3     1.118   
   -8.100       0.2171E-4     1.002       0.7755E-3     1.118   
   -8.090       0.2175E-4     1.002       0.7765E-3     1.118   
   -8.080       0.2179E-4     1.002       0.7776E-3     1.118   
   -8.070       0.2183E-4     1.002       0.7786E-3     1.118   
   -8.060       0.2187E-4     1.002       0.7797E-3     1.118   
   -8.050       0.2191E-4     1.002       0.7807E-3     1.118   
   -8.040       0.2195E-4     1.002       0.7818E-3     1.118   
   -8.030       0.2199E-4     1.002       0.7828E-3     1.118   
   -8.020       0.2204E-4     1.002       0.7839E-3     1.118   
   -8.010       0.2208E-4     1.002       0.7850E-3     1.118   
   -8.000       0.2212E-4     1.002       0.7860E-3     1.118   
   -7.990       0.2216E-4     1.002       0.7871E-3     1.119   
   -7.980       0.2220E-4     1.002       0.7882E-3     1.119   
   -7.970       0.2224E-4     1.002       0.7892E-3     1.119   
   -7.960       0.2228E-4     1.002       0.7903E-3     1.119   
   -7.950       0.2233E-4     1.002       0.7914E-3     1.119   
   -7.940       0.2237E-4     1.002       0.7925E-3     1.119   
   -7.930       0.2241E-4     1.002       0.7935E-3     1.119   
   -7.920       0.2245E-4     1.002       0.7946E-3     1.119   
   -7.910       0.2249E-4     1.002       0.7957E-3     1.119   
   -7.900       0.2254E-4     1.002       0.7968E-3     1.119   
   -7.890       0.2258E-4     1.002       0.7979E-3     1.119   
   -7.880       0.2262E-4     1.002       0.7990E-3     1.119   
   -7.870       0.2266E-4     1.002       0.8001E-3     1.119   
   -7.860       0.2271E-4     1.002       0.8011E-3     1.120   
   -7.850       0.2275E-4     1.002       0.8022E-3     1.120   
   -7.840       0.2279E-4     1.002       0.8033E-3     1.120   
   -7.830       0.2284E-4     1.002       0.8044E-3     1.120   
   -7.820       0.2288E-4     1.002       0.8056E-3     1.120   
   -7.810       0.2292E-4     1.002       0.8067E-3     1.120   
   -7.800       0.2297E-4     1.002       0.8078E-3     1.120   
   -7.790       0.2301E-4     1.002       0.8089E-3     1.120   
   -7.780       0.2305E-4     1.002       0.8100E-3     1.120   
   -7.770       0.2310E-4     1.002       0.8111E-3     1.120   
   -7.760       0.2314E-4     1.002       0.8122E-3     1.120   
   -7.750       0.2319E-4     1.002       0.8134E-3     1.120   
   -7.740       0.2323E-4     1.002       0.8145E-3     1.121   
   -7.730       0.2327E-4     1.002       0.8156E-3     1.121   
   -7.720       0.2332E-4     1.002       0.8167E-3     1.121   
   -7.710       0.2336E-4     1.002       0.8179E-3     1.121   
   -7.700       0.2341E-4     1.002       0.8190E-3     1.121   
   -7.690       0.2345E-4     1.002       0.8201E-3     1.121   
   -7.680       0.2350E-4     1.002       0.8213E-3     1.121   
   -7.670       0.2354E-4     1.002       0.8224E-3     1.121   
   -7.660       0.2359E-4     1.002       0.8235E-3     1.121   
   -7.650       0.2363E-4     1.002       0.8247E-3     1.121   
   -7.640       0.2368E-4     1.002       0.8258E-3     1.121   
   -7.630       0.2373E-4     1.002       0.8270E-3     1.121   
   -7.620       0.2377E-4     1.002       0.8281E-3     1.122   
   -7.610       0.2382E-4     1.002       0.8293E-3     1.122   
   -7.600       0.2386E-4     1.002       0.8305E-3     1.122   
   -7.590       0.2391E-4     1.002       0.8316E-3     1.122   
   -7.580       0.2396E-4     1.002       0.8328E-3     1.122   
   -7.570       0.2400E-4     1.002       0.8339E-3     1.122   
   -7.560       0.2405E-4     1.002       0.8351E-3     1.122   
   -7.550       0.2410E-4     1.002       0.8363E-3     1.122   
   -7.540       0.2414E-4     1.002       0.8374E-3     1.122   
   -7.530       0.2419E-4     1.002       0.8386E-3     1.122   
   -7.520       0.2424E-4     1.002       0.8398E-3     1.122   
   -7.510       0.2428E-4     1.002       0.8410E-3     1.122   
   -7.500       0.2433E-4     1.002       0.8422E-3     1.123   
   -7.490       0.2438E-4     1.002       0.8433E-3     1.123   
   -7.480       0.2443E-4     1.002       0.8445E-3     1.123   
   -7.470       0.2447E-4     1.002       0.8457E-3     1.123   
   -7.460       0.2452E-4     1.002       0.8469E-3     1.123   
   -7.450       0.2457E-4     1.003       0.8481E-3     1.123   
   -7.440       0.2462E-4     1.003       0.8493E-3     1.123   
   -7.430       0.2467E-4     1.003       0.8505E-3     1.123   
   -7.420       0.2472E-4     1.003       0.8517E-3     1.123   
   -7.410       0.2477E-4     1.003       0.8529E-3     1.123   
   -7.400       0.2481E-4     1.003       0.8541E-3     1.123   
   -7.390       0.2486E-4     1.003       0.8553E-3     1.123   
   -7.380       0.2491E-4     1.003       0.8566E-3     1.124   
   -7.370       0.2496E-4     1.003       0.8578E-3     1.124   
   -7.360       0.2501E-4     1.003       0.8590E-3     1.124   
   -7.350       0.2506E-4     1.003       0.8602E-3     1.124   
   -7.340       0.2511E-4     1.003       0.8614E-3     1.124   
   -7.330       0.2516E-4     1.003       0.8627E-3     1.124   
   -7.320       0.2521E-4     1.003       0.8639E-3     1.124   
   -7.310       0.2526E-4     1.003       0.8651E-3     1.124   
   -7.300       0.2531E-4     1.003       0.8664E-3     1.124   
   -7.290       0.2536E-4     1.003       0.8676E-3     1.124   
   -7.280       0.2541E-4     1.003       0.8688E-3     1.124   
   -7.270       0.2546E-4     1.003       0.8701E-3     1.124   
   -7.260       0.2551E-4     1.003       0.8713E-3     1.125   
   -7.250       0.2557E-4     1.003       0.8726E-3     1.125   
   -7.240       0.2562E-4     1.003       0.8738E-3     1.125   
   -7.230       0.2567E-4     1.003       0.8751E-3     1.125   
   -7.220       0.2572E-4     1.003       0.8763E-3     1.125   
   -7.210       0.2577E-4     1.003       0.8776E-3     1.125   
   -7.200       0.2582E-4     1.003       0.8788E-3     1.125   
   -7.190       0.2588E-4     1.003       0.8801E-3     1.125   
   -7.180       0.2593E-4     1.003       0.8814E-3     1.125   
   -7.170       0.2598E-4     1.003       0.8827E-3     1.125   
   -7.160       0.2603E-4     1.003       0.8839E-3     1.125   
   -7.150       0.2609E-4     1.003       0.8852E-3     1.126   
   -7.140       0.2614E-4     1.003       0.8865E-3     1.126   
   -7.130       0.2619E-4     1.003       0.8878E-3     1.126   
   -7.120       0.2624E-4     1.003       0.8890E-3     1.126   
   -7.110       0.2630E-4     1.003       0.8903E-3     1.126   
   -7.100       0.2635E-4     1.003       0.8916E-3     1.126   
   -7.090       0.2640E-4     1.003       0.8929E-3     1.126   
   -7.080       0.2646E-4     1.003       0.8942E-3     1.126   
   -7.070       0.2651E-4     1.003       0.8955E-3     1.126   
   -7.060       0.2657E-4     1.003       0.8968E-3     1.126   
   -7.050       0.2662E-4     1.003       0.8981E-3     1.126   
   -7.040       0.2668E-4     1.003       0.8994E-3     1.127   
   -7.030       0.2673E-4     1.003       0.9007E-3     1.127   
   -7.020       0.2679E-4     1.003       0.9020E-3     1.127   
   -7.010       0.2684E-4     1.003       0.9034E-3     1.127   
   -7.000       0.2690E-4     1.003       0.9047E-3     1.127   
   -6.990       0.2695E-4     1.003       0.9060E-3     1.127   
   -6.980       0.2701E-4     1.003       0.9073E-3     1.127   
   -6.970       0.2706E-4     1.003       0.9087E-3     1.127   
   -6.960       0.2712E-4     1.003       0.9100E-3     1.127   
   -6.950       0.2717E-4     1.003       0.9113E-3     1.127   
   -6.940       0.2723E-4     1.003       0.9127E-3     1.127   
   -6.930       0.2729E-4     1.003       0.9140E-3     1.128   
   -6.920       0.2734E-4     1.003       0.9153E-3     1.128   
   -6.910       0.2740E-4     1.003       0.9167E-3     1.128   
   -6.900       0.2746E-4     1.003       0.9180E-3     1.128   
   -6.890       0.2751E-4     1.003       0.9194E-3     1.128   
   -6.880       0.2757E-4     1.003       0.9207E-3     1.128   
   -6.870       0.2763E-4     1.003       0.9221E-3     1.128   
   -6.860       0.2769E-4     1.003       0.9235E-3     1.128   
   -6.850       0.2774E-4     1.003       0.9248E-3     1.128   
   -6.840       0.2780E-4     1.003       0.9262E-3     1.128   
   -6.830       0.2786E-4     1.003       0.9276E-3     1.128   
   -6.820       0.2792E-4     1.003       0.9289E-3     1.129   
   -6.810       0.2798E-4     1.003       0.9303E-3     1.129   
   -6.800       0.2804E-4     1.003       0.9317E-3     1.129   
   -6.790       0.2809E-4     1.003       0.9331E-3     1.129   
   -6.780       0.2815E-4     1.003       0.9345E-3     1.129   
   -6.770       0.2821E-4     1.003       0.9359E-3     1.129   
   -6.760       0.2827E-4     1.003       0.9372E-3     1.129   
   -6.750       0.2833E-4     1.003       0.9386E-3     1.129   
   -6.740       0.2839E-4     1.003       0.9400E-3     1.129   
   -6.730       0.2845E-4     1.003       0.9414E-3     1.129   
   -6.720       0.2851E-4     1.003       0.9429E-3     1.129   
   -6.710       0.2857E-4     1.003       0.9443E-3     1.130   
   -6.700       0.2863E-4     1.003       0.9457E-3     1.130   
   -6.690       0.2869E-4     1.003       0.9471E-3     1.130   
   -6.680       0.2875E-4     1.003       0.9485E-3     1.130   
   -6.670       0.2882E-4     1.003       0.9499E-3     1.130   
   -6.660       0.2888E-4     1.003       0.9514E-3     1.130   
   -6.650       0.2894E-4     1.003       0.9528E-3     1.130   
   -6.640       0.2900E-4     1.003       0.9542E-3     1.130   
   -6.630       0.2906E-4     1.003       0.9556E-3     1.130   
   -6.620       0.2912E-4     1.003       0.9571E-3     1.130   
   -6.610       0.2919E-4     1.003       0.9585E-3     1.131   
   -6.600       0.2925E-4     1.003       0.9600E-3     1.131   
   -6.590       0.2931E-4     1.003       0.9614E-3     1.131   
   -6.580       0.2938E-4     1.003       0.9629E-3     1.131   
   -6.570       0.2944E-4     1.003       0.9643E-3     1.131   
   -6.560       0.2950E-4     1.003       0.9658E-3     1.131   
   -6.550       0.2957E-4     1.003       0.9672E-3     1.131   
   -6.540       0.2963E-4     1.003       0.9687E-3     1.131   
   -6.530       0.2969E-4     1.003       0.9702E-3     1.131   
   -6.520       0.2976E-4     1.003       0.9716E-3     1.131   
   -6.510       0.2982E-4     1.003       0.9731E-3     1.131   
   -6.500       0.2989E-4     1.003       0.9746E-3     1.132   
   -6.490       0.2995E-4     1.003       0.9761E-3     1.132   
   -6.480       0.3002E-4     1.003       0.9776E-3     1.132   
   -6.470       0.3008E-4     1.003       0.9791E-3     1.132   
   -6.460       0.3015E-4     1.003       0.9805E-3     1.132   
   -6.450       0.3021E-4     1.003       0.9820E-3     1.132   
   -6.440       0.3028E-4     1.003       0.9835E-3     1.132   
   -6.430       0.3034E-4     1.003       0.9850E-3     1.132   
   -6.420       0.3041E-4     1.003       0.9866E-3     1.132   
   -6.410       0.3048E-4     1.003       0.9881E-3     1.132   
   -6.400       0.3054E-4     1.003       0.9896E-3     1.133   
   -6.390       0.3061E-4     1.003       0.9911E-3     1.133   
   -6.380       0.3068E-4     1.003       0.9926E-3     1.133   
   -6.370       0.3075E-4     1.003       0.9941E-3     1.133   
   -6.360       0.3081E-4     1.003       0.9957E-3     1.133   
   -6.350       0.3088E-4     1.003       0.9972E-3     1.133   
   -6.340       0.3095E-4     1.003       0.9987E-3     1.133   
   -6.330       0.3102E-4     1.003       0.1000E-2     1.133   
   -6.320       0.3109E-4     1.003       0.1002E-2     1.133   
   -6.310       0.3116E-4     1.003       0.1003E-2     1.133   
   -6.300       0.3122E-4     1.003       0.1005E-2     1.134   
   -6.290       0.3129E-4     1.003       0.1006E-2     1.134   
   -6.280       0.3136E-4     1.003       0.1008E-2     1.134   
   -6.270       0.3143E-4     1.003       0.1010E-2     1.134   
   -6.260       0.3150E-4     1.003       0.1011E-2     1.134   
   -6.250       0.3157E-4     1.003       0.1013E-2     1.134   
   -6.240       0.3164E-4     1.003       0.1014E-2     1.134   
   -6.230       0.3171E-4     1.003       0.1016E-2     1.134   
   -6.220       0.3178E-4     1.003       0.1017E-2     1.134   
   -6.210       0.3186E-4     1.003       0.1019E-2     1.134   
   -6.200       0.3193E-4     1.003       0.1021E-2     1.135   
   -6.190       0.3200E-4     1.003       0.1022E-2     1.135   
   -6.180       0.3207E-4     1.003       0.1024E-2     1.135   
   -6.170       0.3214E-4     1.003       0.1025E-2     1.135   
   -6.160       0.3221E-4     1.003       0.1027E-2     1.135   
   -6.150       0.3229E-4     1.003       0.1029E-2     1.135   
   -6.140       0.3236E-4     1.003       0.1030E-2     1.135   
   -6.130       0.3243E-4     1.003       0.1032E-2     1.135   
   -6.120       0.3251E-4     1.003       0.1033E-2     1.135   
   -6.110       0.3258E-4     1.003       0.1035E-2     1.136   
   -6.100       0.3265E-4     1.003       0.1037E-2     1.136   
   -6.090       0.3273E-4     1.003       0.1038E-2     1.136   
   -6.080       0.3280E-4     1.003       0.1040E-2     1.136   
   -6.070       0.3288E-4     1.003       0.1042E-2     1.136   
   -6.060       0.3295E-4     1.003       0.1043E-2     1.136   
   -6.050       0.3303E-4     1.003       0.1045E-2     1.136   
   -6.040       0.3310E-4     1.003       0.1047E-2     1.136   
   -6.030       0.3318E-4     1.003       0.1048E-2     1.136   
   -6.020       0.3325E-4     1.003       0.1050E-2     1.136   
   -6.010       0.3333E-4     1.003       0.1051E-2     1.137   
   -6.000       0.3341E-4     1.003       0.1053E-2     1.137   
   -5.990       0.3348E-4     1.003       0.1055E-2     1.137   
   -5.980       0.3356E-4     1.003       0.1056E-2     1.137   
   -5.970       0.3364E-4     1.003       0.1058E-2     1.137   
   -5.960       0.3371E-4     1.003       0.1060E-2     1.137   
   -5.950       0.3379E-4     1.003       0.1062E-2     1.137   
   -5.940       0.3387E-4     1.003       0.1063E-2     1.137   
   -5.930       0.3395E-4     1.003       0.1065E-2     1.137   
   -5.920       0.3403E-4     1.003       0.1067E-2     1.137   
   -5.910       0.3411E-4     1.003       0.1068E-2     1.138   
   -5.900       0.3418E-4     1.003       0.1070E-2     1.138   
   -5.890       0.3426E-4     1.003       0.1072E-2     1.138   
   -5.880       0.3434E-4     1.003       0.1073E-2     1.138   
   -5.870       0.3442E-4     1.003       0.1075E-2     1.138   
   -5.860       0.3450E-4     1.003       0.1077E-2     1.138   
   -5.850       0.3458E-4     1.003       0.1079E-2     1.138   
   -5.840       0.3466E-4     1.003       0.1080E-2     1.138   
   -5.830       0.3475E-4     1.003       0.1082E-2     1.138   
   -5.820       0.3483E-4     1.003       0.1084E-2     1.139   
   -5.810       0.3491E-4     1.003       0.1086E-2     1.139   
   -5.800       0.3499E-4     1.003       0.1087E-2     1.139   
   -5.790       0.3507E-4     1.003       0.1089E-2     1.139   
   -5.780       0.3515E-4     1.003       0.1091E-2     1.139   
   -5.770       0.3524E-4     1.003       0.1093E-2     1.139   
   -5.760       0.3532E-4     1.003       0.1094E-2     1.139   
   -5.750       0.3540E-4     1.003       0.1096E-2     1.139   
   -5.740       0.3549E-4     1.003       0.1098E-2     1.139   
   -5.730       0.3557E-4     1.003       0.1100E-2     1.140   
   -5.720       0.3566E-4     1.003       0.1101E-2     1.140   
   -5.710       0.3574E-4     1.003       0.1103E-2     1.140   
   -5.700       0.3582E-4     1.003       0.1105E-2     1.140   
   -5.690       0.3591E-4     1.003       0.1107E-2     1.140   
   -5.680       0.3599E-4     1.003       0.1109E-2     1.140   
   -5.670       0.3608E-4     1.003       0.1110E-2     1.140   
   -5.660       0.3617E-4     1.003       0.1112E-2     1.140   
   -5.650       0.3625E-4     1.003       0.1114E-2     1.140   
   -5.640       0.3634E-4     1.003       0.1116E-2     1.141   
   -5.630       0.3643E-4     1.003       0.1118E-2     1.141   
   -5.620       0.3651E-4     1.003       0.1120E-2     1.141   
   -5.610       0.3660E-4     1.003       0.1121E-2     1.141   
   -5.600       0.3669E-4     1.003       0.1123E-2     1.141   
   -5.590       0.3678E-4     1.003       0.1125E-2     1.141   
   -5.580       0.3687E-4     1.003       0.1127E-2     1.141   
   -5.570       0.3695E-4     1.003       0.1129E-2     1.141   
   -5.560       0.3704E-4     1.003       0.1131E-2     1.141   
   -5.550       0.3713E-4     1.003       0.1132E-2     1.142   
   -5.540       0.3722E-4     1.003       0.1134E-2     1.142   
   -5.530       0.3731E-4     1.003       0.1136E-2     1.142   
   -5.520       0.3740E-4     1.003       0.1138E-2     1.142   
   -5.510       0.3749E-4     1.003       0.1140E-2     1.142   
   -5.500       0.3759E-4     1.003       0.1142E-2     1.142   
   -5.490       0.3768E-4     1.003       0.1144E-2     1.142   
   -5.480       0.3777E-4     1.003       0.1146E-2     1.142   
   -5.470       0.3786E-4     1.003       0.1148E-2     1.142   
   -5.460       0.3795E-4     1.003       0.1149E-2     1.143   
   -5.450       0.3805E-4     1.003       0.1151E-2     1.143   
   -5.440       0.3814E-4     1.003       0.1153E-2     1.143   
   -5.430       0.3823E-4     1.003       0.1155E-2     1.143   
   -5.420       0.3833E-4     1.003       0.1157E-2     1.143   
   -5.410       0.3842E-4     1.003       0.1159E-2     1.143   
   -5.400       0.3852E-4     1.003       0.1161E-2     1.143   
   -5.390       0.3861E-4     1.003       0.1163E-2     1.143   
   -5.380       0.3871E-4     1.003       0.1165E-2     1.144   
   -5.370       0.3880E-4     1.003       0.1167E-2     1.144   
   -5.360       0.3890E-4     1.003       0.1169E-2     1.144   
   -5.350       0.3899E-4     1.003       0.1171E-2     1.144   
   -5.340       0.3909E-4     1.003       0.1173E-2     1.144   
   -5.330       0.3919E-4     1.003       0.1175E-2     1.144   
   -5.320       0.3928E-4     1.003       0.1177E-2     1.144   
   -5.310       0.3938E-4     1.003       0.1179E-2     1.144   
   -5.300       0.3948E-4     1.003       0.1181E-2     1.144   
   -5.290       0.3958E-4     1.003       0.1183E-2     1.145   
   -5.280       0.3968E-4     1.003       0.1185E-2     1.145   
   -5.270       0.3978E-4     1.003       0.1187E-2     1.145   
   -5.260       0.3988E-4     1.003       0.1189E-2     1.145   
   -5.250       0.3998E-4     1.003       0.1191E-2     1.145   
   -5.240       0.4008E-4     1.003       0.1193E-2     1.145   
   -5.230       0.4018E-4     1.003       0.1195E-2     1.145   
   -5.220       0.4028E-4     1.003       0.1197E-2     1.145   
   -5.210       0.4038E-4     1.003       0.1199E-2     1.146   
   -5.200       0.4048E-4     1.003       0.1201E-2     1.146   
   -5.190       0.4058E-4     1.003       0.1203E-2     1.146   
   -5.180       0.4069E-4     1.003       0.1205E-2     1.146   
   -5.170       0.4079E-4     1.003       0.1207E-2     1.146   
   -5.160       0.4089E-4     1.003       0.1209E-2     1.146   
   -5.150       0.4100E-4     1.003       0.1211E-2     1.146   
   -5.140       0.4110E-4     1.003       0.1213E-2     1.146   
   -5.130       0.4121E-4     1.003       0.1215E-2     1.146   
   -5.120       0.4131E-4     1.003       0.1217E-2     1.147   
   -5.110       0.4142E-4     1.003       0.1219E-2     1.147   
   -5.100       0.4152E-4     1.003       0.1221E-2     1.147   
   -5.090       0.4163E-4     1.003       0.1224E-2     1.147   
   -5.080       0.4173E-4     1.003       0.1226E-2     1.147   
   -5.070       0.4184E-4     1.003       0.1228E-2     1.147   
   -5.060       0.4195E-4     1.003       0.1230E-2     1.147   
   -5.050       0.4206E-4     1.003       0.1232E-2     1.147   
   -5.040       0.4216E-4     1.003       0.1234E-2     1.148   
   -5.030       0.4227E-4     1.003       0.1236E-2     1.148   
   -5.020       0.4238E-4     1.003       0.1238E-2     1.148   
   -5.010       0.4249E-4     1.003       0.1240E-2     1.148   
   -5.000       0.4260E-4     1.003       0.1243E-2     1.148   
   -4.990       0.4271E-4     1.003       0.1245E-2     1.148   
   -4.980       0.4282E-4     1.003       0.1247E-2     1.148   
   -4.970       0.4293E-4     1.003       0.1249E-2     1.148   
   -4.960       0.4305E-4     1.003       0.1251E-2     1.149   
   -4.950       0.4316E-4     1.003       0.1253E-2     1.149   
   -4.940       0.4327E-4     1.003       0.1256E-2     1.149   
   -4.930       0.4338E-4     1.003       0.1258E-2     1.149   
   -4.920       0.4350E-4     1.003       0.1260E-2     1.149   
   -4.910       0.4361E-4     1.003       0.1262E-2     1.149   
   -4.900       0.4373E-4     1.003       0.1264E-2     1.149   
   -4.890       0.4384E-4     1.003       0.1267E-2     1.149   
   -4.880       0.4396E-4     1.003       0.1269E-2     1.150   
   -4.870       0.4407E-4     1.003       0.1271E-2     1.150   
   -4.860       0.4419E-4     1.003       0.1273E-2     1.150   
   -4.850       0.4430E-4     1.003       0.1276E-2     1.150   
   -4.840       0.4442E-4     1.003       0.1278E-2     1.150   
   -4.830       0.4454E-4     1.003       0.1280E-2     1.150   
   -4.820       0.4466E-4     1.003       0.1282E-2     1.150   
   -4.810       0.4477E-4     1.003       0.1285E-2     1.150   
   -4.800       0.4489E-4     1.003       0.1287E-2     1.151   
   -4.790       0.4501E-4     1.003       0.1289E-2     1.151   
   -4.780       0.4513E-4     1.003       0.1291E-2     1.151   
   -4.770       0.4525E-4     1.003       0.1294E-2     1.151   
   -4.760       0.4537E-4     1.003       0.1296E-2     1.151   
   -4.750       0.4550E-4     1.003       0.1298E-2     1.151   
   -4.740       0.4562E-4     1.003       0.1301E-2     1.151   
   -4.730       0.4574E-4     1.003       0.1303E-2     1.152   
   -4.720       0.4586E-4     1.003       0.1305E-2     1.152   
   -4.710       0.4599E-4     1.003       0.1307E-2     1.152   
   -4.700       0.4611E-4     1.003       0.1310E-2     1.152   
   -4.690       0.4623E-4     1.003       0.1312E-2     1.152   
   -4.680       0.4636E-4     1.003       0.1314E-2     1.152   
   -4.670       0.4648E-4     1.003       0.1317E-2     1.152   
   -4.660       0.4661E-4     1.003       0.1319E-2     1.152   
   -4.650       0.4674E-4     1.003       0.1322E-2     1.153   
   -4.640       0.4686E-4     1.003       0.1324E-2     1.153   
   -4.630       0.4699E-4     1.003       0.1326E-2     1.153   
   -4.620       0.4712E-4     1.003       0.1329E-2     1.153   
   -4.610       0.4725E-4     1.003       0.1331E-2     1.153   
   -4.600       0.4738E-4     1.003       0.1333E-2     1.153   
   -4.590       0.4750E-4     1.003       0.1336E-2     1.153   
   -4.580       0.4763E-4     1.003       0.1338E-2     1.154   
   -4.570       0.4776E-4     1.003       0.1341E-2     1.154   
   -4.560       0.4790E-4     1.003       0.1343E-2     1.154   
   -4.550       0.4803E-4     1.003       0.1346E-2     1.154   
   -4.540       0.4816E-4     1.004       0.1348E-2     1.154   
   -4.530       0.4829E-4     1.004       0.1350E-2     1.154   
   -4.520       0.4843E-4     1.004       0.1353E-2     1.154   
   -4.510       0.4856E-4     1.004       0.1355E-2     1.154   
   -4.500       0.4869E-4     1.004       0.1358E-2     1.155   
   -4.490       0.4883E-4     1.004       0.1360E-2     1.155   
   -4.480       0.4896E-4     1.004       0.1363E-2     1.155   
   -4.470       0.4910E-4     1.004       0.1365E-2     1.155   
   -4.460       0.4924E-4     1.004       0.1368E-2     1.155   
   -4.450       0.4937E-4     1.004       0.1370E-2     1.155   
   -4.440       0.4951E-4     1.004       0.1373E-2     1.155   
   -4.430       0.4965E-4     1.004       0.1375E-2     1.156   
   -4.420       0.4979E-4     1.004       0.1378E-2     1.156   
   -4.410       0.4993E-4     1.004       0.1380E-2     1.156   
   -4.400       0.5007E-4     1.004       0.1383E-2     1.156   
   -4.390       0.5021E-4     1.004       0.1385E-2     1.156   
   -4.380       0.5035E-4     1.004       0.1388E-2     1.156   
   -4.370       0.5049E-4     1.004       0.1390E-2     1.156   
   -4.360       0.5063E-4     1.004       0.1393E-2     1.157   
   -4.350       0.5078E-4     1.004       0.1396E-2     1.157   
   -4.340       0.5092E-4     1.004       0.1398E-2     1.157   
   -4.330       0.5107E-4     1.004       0.1401E-2     1.157   
   -4.320       0.5121E-4     1.004       0.1403E-2     1.157   
   -4.310       0.5136E-4     1.004       0.1406E-2     1.157   
   -4.300       0.5150E-4     1.004       0.1408E-2     1.157   
   -4.290       0.5165E-4     1.004       0.1411E-2     1.157   
   -4.280       0.5180E-4     1.004       0.1414E-2     1.158   
   -4.270       0.5194E-4     1.004       0.1416E-2     1.158   
   -4.260       0.5209E-4     1.004       0.1419E-2     1.158   
   -4.250       0.5224E-4     1.004       0.1422E-2     1.158   
   -4.240       0.5239E-4     1.004       0.1424E-2     1.158   
   -4.230       0.5254E-4     1.004       0.1427E-2     1.158   
   -4.220       0.5269E-4     1.004       0.1430E-2     1.158   
   -4.210       0.5285E-4     1.004       0.1432E-2     1.159   
   -4.200       0.5300E-4     1.004       0.1435E-2     1.159   
   -4.190       0.5315E-4     1.004       0.1438E-2     1.159   
   -4.180       0.5330E-4     1.004       0.1440E-2     1.159   
   -4.170       0.5346E-4     1.004       0.1443E-2     1.159   
   -4.160       0.5361E-4     1.004       0.1446E-2     1.159   
   -4.150       0.5377E-4     1.004       0.1448E-2     1.159   
   -4.140       0.5393E-4     1.004       0.1451E-2     1.160   
   -4.130       0.5408E-4     1.004       0.1454E-2     1.160   
   -4.120       0.5424E-4     1.004       0.1457E-2     1.160   
   -4.110       0.5440E-4     1.004       0.1459E-2     1.160   
   -4.100       0.5456E-4     1.004       0.1462E-2     1.160   
   -4.090       0.5472E-4     1.004       0.1465E-2     1.160   
   -4.080       0.5488E-4     1.004       0.1468E-2     1.161   
   -4.070       0.5504E-4     1.004       0.1470E-2     1.161   
   -4.060       0.5520E-4     1.004       0.1473E-2     1.161   
   -4.050       0.5537E-4     1.004       0.1476E-2     1.161   
   -4.040       0.5553E-4     1.004       0.1479E-2     1.161   
   -4.030       0.5569E-4     1.004       0.1482E-2     1.161   
   -4.020       0.5586E-4     1.004       0.1485E-2     1.161   
   -4.010       0.5603E-4     1.004       0.1487E-2     1.162   
   -4.000       0.5619E-4     1.004       0.1490E-2     1.162   
   -3.990       0.5636E-4     1.004       0.1493E-2     1.162   
   -3.980       0.5653E-4     1.004       0.1496E-2     1.162   
   -3.970       0.5670E-4     1.004       0.1499E-2     1.162   
   -3.960       0.5687E-4     1.004       0.1502E-2     1.162   
   -3.950       0.5704E-4     1.004       0.1505E-2     1.162   
   -3.940       0.5721E-4     1.004       0.1507E-2     1.163   
   -3.930       0.5738E-4     1.004       0.1510E-2     1.163   
   -3.920       0.5755E-4     1.004       0.1513E-2     1.163   
   -3.910       0.5772E-4     1.004       0.1516E-2     1.163   
   -3.900       0.5790E-4     1.004       0.1519E-2     1.163   
   -3.890       0.5807E-4     1.004       0.1522E-2     1.163   
   -3.880       0.5825E-4     1.004       0.1525E-2     1.163   
   -3.870       0.5843E-4     1.004       0.1528E-2     1.164   
   -3.860       0.5860E-4     1.004       0.1531E-2     1.164   
   -3.850       0.5878E-4     1.004       0.1534E-2     1.164   
   -3.840       0.5896E-4     1.004       0.1537E-2     1.164   
   -3.830       0.5914E-4     1.004       0.1540E-2     1.164   
   -3.820       0.5932E-4     1.004       0.1543E-2     1.164   
   -3.810       0.5950E-4     1.004       0.1546E-2     1.165   
   -3.800       0.5968E-4     1.004       0.1549E-2     1.165   
   -3.790       0.5987E-4     1.004       0.1552E-2     1.165   
   -3.780       0.6005E-4     1.004       0.1555E-2     1.165   
   -3.770       0.6024E-4     1.004       0.1558E-2     1.165   
   -3.760       0.6042E-4     1.004       0.1561E-2     1.165   
   -3.750       0.6061E-4     1.004       0.1564E-2     1.166   
   -3.740       0.6079E-4     1.004       0.1567E-2     1.166   
   -3.730       0.6098E-4     1.004       0.1570E-2     1.166   
   -3.720       0.6117E-4     1.004       0.1573E-2     1.166   
   -3.710       0.6136E-4     1.004       0.1576E-2     1.166   
   -3.700       0.6155E-4     1.004       0.1580E-2     1.166   
   -3.690       0.6174E-4     1.004       0.1583E-2     1.166   
   -3.680       0.6194E-4     1.004       0.1586E-2     1.167   
   -3.670       0.6213E-4     1.004       0.1589E-2     1.167   
   -3.660       0.6233E-4     1.004       0.1592E-2     1.167   
   -3.650       0.6252E-4     1.004       0.1595E-2     1.167   
   -3.640       0.6272E-4     1.004       0.1598E-2     1.167   
   -3.630       0.6291E-4     1.004       0.1602E-2     1.167   
   -3.620       0.6311E-4     1.004       0.1605E-2     1.168   
   -3.610       0.6331E-4     1.004       0.1608E-2     1.168   
   -3.600       0.6351E-4     1.004       0.1611E-2     1.168   
   -3.590       0.6371E-4     1.004       0.1614E-2     1.168   
   -3.580       0.6391E-4     1.004       0.1618E-2     1.168   
   -3.570       0.6412E-4     1.004       0.1621E-2     1.168   
   -3.560       0.6432E-4     1.004       0.1624E-2     1.169   
   -3.550       0.6453E-4     1.004       0.1627E-2     1.169   
   -3.540       0.6473E-4     1.004       0.1631E-2     1.169   
   -3.530       0.6494E-4     1.004       0.1634E-2     1.169   
   -3.520       0.6515E-4     1.004       0.1637E-2     1.169   
   -3.510       0.6536E-4     1.004       0.1640E-2     1.169   
   -3.500       0.6556E-4     1.004       0.1644E-2     1.170   
   -3.490       0.6578E-4     1.004       0.1647E-2     1.170   
   -3.480       0.6599E-4     1.004       0.1650E-2     1.170   
   -3.470       0.6620E-4     1.004       0.1654E-2     1.170   
   -3.460       0.6641E-4     1.004       0.1657E-2     1.170   
   -3.450       0.6663E-4     1.004       0.1660E-2     1.170   
   -3.440       0.6685E-4     1.004       0.1664E-2     1.171   
   -3.430       0.6706E-4     1.004       0.1667E-2     1.171   
   -3.420       0.6728E-4     1.004       0.1671E-2     1.171   
   -3.410       0.6750E-4     1.004       0.1674E-2     1.171   
   -3.400       0.6772E-4     1.004       0.1677E-2     1.171   
   -3.390       0.6794E-4     1.004       0.1681E-2     1.171   
   -3.380       0.6816E-4     1.004       0.1684E-2     1.172   
   -3.370       0.6839E-4     1.004       0.1688E-2     1.172   
   -3.360       0.6861E-4     1.004       0.1691E-2     1.172   
   -3.350       0.6884E-4     1.004       0.1695E-2     1.172   
   -3.340       0.6906E-4     1.004       0.1698E-2     1.172   
   -3.330       0.6929E-4     1.004       0.1702E-2     1.172   
   -3.320       0.6952E-4     1.004       0.1705E-2     1.173   
   -3.310       0.6975E-4     1.004       0.1709E-2     1.173   
   -3.300       0.6998E-4     1.004       0.1712E-2     1.173   
   -3.290       0.7021E-4     1.004       0.1716E-2     1.173   
   -3.280       0.7045E-4     1.004       0.1719E-2     1.173   
   -3.270       0.7068E-4     1.004       0.1723E-2     1.173   
   -3.260       0.7092E-4     1.004       0.1726E-2     1.174   
   -3.250       0.7116E-4     1.004       0.1730E-2     1.174   
   -3.240       0.7139E-4     1.004       0.1733E-2     1.174   
   -3.230       0.7163E-4     1.004       0.1737E-2     1.174   
   -3.220       0.7188E-4     1.004       0.1741E-2     1.174   
   -3.210       0.7212E-4     1.004       0.1744E-2     1.174   
   -3.200       0.7236E-4     1.004       0.1748E-2     1.175   
   -3.190       0.7260E-4     1.004       0.1752E-2     1.175   
   -3.180       0.7285E-4     1.004       0.1755E-2     1.175   
   -3.170       0.7310E-4     1.004       0.1759E-2     1.175   
   -3.160       0.7335E-4     1.004       0.1763E-2     1.175   
   -3.150       0.7359E-4     1.004       0.1766E-2     1.175   
   -3.140       0.7385E-4     1.004       0.1770E-2     1.176   
   -3.130       0.7410E-4     1.004       0.1774E-2     1.176   
   -3.120       0.7435E-4     1.004       0.1777E-2     1.176   
   -3.110       0.7461E-4     1.004       0.1781E-2     1.176   
   -3.100       0.7486E-4     1.004       0.1785E-2     1.176   
   -3.090       0.7512E-4     1.004       0.1789E-2     1.177   
   -3.080       0.7538E-4     1.004       0.1793E-2     1.177   
   -3.070       0.7564E-4     1.004       0.1796E-2     1.177   
   -3.060       0.7590E-4     1.004       0.1800E-2     1.177   
   -3.050       0.7616E-4     1.004       0.1804E-2     1.177   
   -3.040       0.7642E-4     1.004       0.1808E-2     1.177   
   -3.030       0.7669E-4     1.004       0.1812E-2     1.178   
   -3.020       0.7696E-4     1.004       0.1815E-2     1.178   
   -3.010       0.7723E-4     1.004       0.1819E-2     1.178   
   -3.000       0.7749E-4     1.004       0.1823E-2     1.178   
   -2.990       0.7777E-4     1.004       0.1827E-2     1.178   
   -2.980       0.7804E-4     1.004       0.1831E-2     1.179   
   -2.970       0.7831E-4     1.004       0.1835E-2     1.179   
   -2.960       0.7859E-4     1.004       0.1839E-2     1.179   
   -2.950       0.7886E-4     1.004       0.1843E-2     1.179   
   -2.940       0.7914E-4     1.004       0.1847E-2     1.179   
   -2.930       0.7942E-4     1.004       0.1851E-2     1.179   
   -2.920       0.7970E-4     1.005       0.1855E-2     1.180   
   -2.910       0.7999E-4     1.005       0.1859E-2     1.180   
   -2.900       0.8027E-4     1.005       0.1863E-2     1.180   
   -2.890       0.8055E-4     1.005       0.1867E-2     1.180   
   -2.880       0.8084E-4     1.005       0.1871E-2     1.180   
   -2.870       0.8113E-4     1.005       0.1875E-2     1.181   
   -2.860       0.8142E-4     1.005       0.1879E-2     1.181   
   -2.850       0.8171E-4     1.005       0.1883E-2     1.181   
   -2.840       0.8201E-4     1.005       0.1887E-2     1.181   
   -2.830       0.8230E-4     1.005       0.1891E-2     1.181   
   -2.820       0.8260E-4     1.005       0.1895E-2     1.182   
   -2.810       0.8290E-4     1.005       0.1900E-2     1.182   
   -2.800       0.8320E-4     1.005       0.1904E-2     1.182   
   -2.790       0.8350E-4     1.005       0.1908E-2     1.182   
   -2.780       0.8380E-4     1.005       0.1912E-2     1.182   
   -2.770       0.8410E-4     1.005       0.1916E-2     1.182   
   -2.760       0.8441E-4     1.005       0.1920E-2     1.183   
   -2.750       0.8472E-4     1.005       0.1925E-2     1.183   
   -2.740       0.8503E-4     1.005       0.1929E-2     1.183   
   -2.730       0.8534E-4     1.005       0.1933E-2     1.183   
   -2.720       0.8565E-4     1.005       0.1937E-2     1.183   
   -2.710       0.8597E-4     1.005       0.1942E-2     1.184   
   -2.700       0.8628E-4     1.005       0.1946E-2     1.184   
   -2.690       0.8660E-4     1.005       0.1950E-2     1.184   
   -2.680       0.8692E-4     1.005       0.1955E-2     1.184   
   -2.670       0.8725E-4     1.005       0.1959E-2     1.184   
   -2.660       0.8757E-4     1.005       0.1963E-2     1.185   
   -2.650       0.8789E-4     1.005       0.1968E-2     1.185   
   -2.640       0.8822E-4     1.005       0.1972E-2     1.185   
   -2.630       0.8855E-4     1.005       0.1977E-2     1.185   
   -2.620       0.8888E-4     1.005       0.1981E-2     1.185   
   -2.610       0.8921E-4     1.005       0.1985E-2     1.186   
   -2.600       0.8955E-4     1.005       0.1990E-2     1.186   
   -2.590       0.8989E-4     1.005       0.1994E-2     1.186   
   -2.580       0.9022E-4     1.005       0.1999E-2     1.186   
   -2.570       0.9057E-4     1.005       0.2003E-2     1.186   
   -2.560       0.9091E-4     1.005       0.2008E-2     1.187   
   -2.550       0.9125E-4     1.005       0.2012E-2     1.187   
   -2.540       0.9160E-4     1.005       0.2017E-2     1.187   
   -2.530       0.9195E-4     1.005       0.2021E-2     1.187   
   -2.520       0.9230E-4     1.005       0.2026E-2     1.187   
   -2.510       0.9265E-4     1.005       0.2031E-2     1.188   
   -2.500       0.9300E-4     1.005       0.2035E-2     1.188   
   -2.490       0.9336E-4     1.005       0.2040E-2     1.188   
   -2.480       0.9372E-4     1.005       0.2044E-2     1.188   
   -2.470       0.9408E-4     1.005       0.2049E-2     1.188   
   -2.460       0.9444E-4     1.005       0.2054E-2     1.189   
   -2.450       0.9481E-4     1.005       0.2058E-2     1.189   
   -2.440       0.9517E-4     1.005       0.2063E-2     1.189   
   -2.430       0.9554E-4     1.005       0.2068E-2     1.189   
   -2.420       0.9591E-4     1.005       0.2073E-2     1.189   
   -2.410       0.9628E-4     1.005       0.2077E-2     1.190   
   -2.400       0.9666E-4     1.005       0.2082E-2     1.190   
   -2.390       0.9704E-4     1.005       0.2087E-2     1.190   
   -2.380       0.9742E-4     1.005       0.2092E-2     1.190   
   -2.370       0.9780E-4     1.005       0.2097E-2     1.190   
   -2.360       0.9818E-4     1.005       0.2101E-2     1.191   
   -2.350       0.9857E-4     1.005       0.2106E-2     1.191   
   -2.340       0.9896E-4     1.005       0.2111E-2     1.191   
   -2.330       0.9935E-4     1.005       0.2116E-2     1.191   
   -2.320       0.9974E-4     1.005       0.2121E-2     1.192   
   -2.310       0.1001E-3     1.005       0.2126E-2     1.192   
   -2.300       0.1005E-3     1.005       0.2131E-2     1.192   
   -2.290       0.1009E-3     1.005       0.2136E-2     1.192   
   -2.280       0.1013E-3     1.005       0.2141E-2     1.192   
   -2.270       0.1017E-3     1.005       0.2146E-2     1.193   
   -2.260       0.1022E-3     1.005       0.2151E-2     1.193   
   -2.250       0.1026E-3     1.005       0.2156E-2     1.193   
   -2.240       0.1030E-3     1.005       0.2161E-2     1.193   
   -2.230       0.1034E-3     1.005       0.2166E-2     1.193   
   -2.220       0.1038E-3     1.005       0.2171E-2     1.194   
   -2.210       0.1042E-3     1.005       0.2176E-2     1.194   
   -2.200       0.1047E-3     1.005       0.2181E-2     1.194   
   -2.190       0.1051E-3     1.005       0.2186E-2     1.194   
   -2.180       0.1055E-3     1.005       0.2192E-2     1.195   
   -2.170       0.1059E-3     1.005       0.2197E-2     1.195   
   -2.160       0.1064E-3     1.005       0.2202E-2     1.195   
   -2.150       0.1068E-3     1.005       0.2207E-2     1.195   
   -2.140       0.1072E-3     1.005       0.2213E-2     1.195   
   -2.130       0.1077E-3     1.005       0.2218E-2     1.196   
   -2.120       0.1081E-3     1.005       0.2223E-2     1.196   
   -2.110       0.1086E-3     1.005       0.2228E-2     1.196   
   -2.100       0.1090E-3     1.005       0.2234E-2     1.196   
   -2.090       0.1095E-3     1.005       0.2239E-2     1.197   
   -2.080       0.1099E-3     1.005       0.2244E-2     1.197   
   -2.070       0.1104E-3     1.005       0.2250E-2     1.197   
   -2.060       0.1109E-3     1.005       0.2255E-2     1.197   
   -2.050       0.1113E-3     1.005       0.2261E-2     1.197   
   -2.040       0.1118E-3     1.005       0.2266E-2     1.198   
   -2.030       0.1123E-3     1.005       0.2272E-2     1.198   
   -2.020       0.1127E-3     1.005       0.2277E-2     1.198   
   -2.010       0.1132E-3     1.005       0.2283E-2     1.198   
   -2.000       0.1137E-3     1.005       0.2288E-2     1.199   
   -1.990       0.1142E-3     1.005       0.2294E-2     1.199   
   -1.980       0.1146E-3     1.005       0.2299E-2     1.199   
   -1.970       0.1151E-3     1.005       0.2305E-2     1.199   
   -1.960       0.1156E-3     1.005       0.2310E-2     1.200   
   -1.950       0.1161E-3     1.005       0.2316E-2     1.200   
   -1.940       0.1166E-3     1.005       0.2322E-2     1.200   
   -1.930       0.1171E-3     1.005       0.2327E-2     1.200   
   -1.920       0.1176E-3     1.005       0.2333E-2     1.200   
   -1.910       0.1181E-3     1.005       0.2339E-2     1.201   
   -1.900       0.1186E-3     1.005       0.2345E-2     1.201   
   -1.890       0.1191E-3     1.006       0.2350E-2     1.201   
   -1.880       0.1197E-3     1.006       0.2356E-2     1.201   
   -1.870       0.1202E-3     1.006       0.2362E-2     1.202   
   -1.860       0.1207E-3     1.006       0.2368E-2     1.202   
   -1.850       0.1212E-3     1.006       0.2374E-2     1.202   
   -1.840       0.1218E-3     1.006       0.2379E-2     1.202   
   -1.830       0.1223E-3     1.006       0.2385E-2     1.203   
   -1.820       0.1228E-3     1.006       0.2391E-2     1.203   
   -1.810       0.1234E-3     1.006       0.2397E-2     1.203   
   -1.800       0.1239E-3     1.006       0.2403E-2     1.203   
   -1.790       0.1245E-3     1.006       0.2409E-2     1.204   
   -1.780       0.1250E-3     1.006       0.2415E-2     1.204   
   -1.770       0.1256E-3     1.006       0.2421E-2     1.204   
   -1.760       0.1261E-3     1.006       0.2427E-2     1.204   
   -1.750       0.1267E-3     1.006       0.2433E-2     1.204   
   -1.740       0.1273E-3     1.006       0.2440E-2     1.205   
   -1.730       0.1278E-3     1.006       0.2446E-2     1.205   
   -1.720       0.1284E-3     1.006       0.2452E-2     1.205   
   -1.710       0.1290E-3     1.006       0.2458E-2     1.205   
   -1.700       0.1296E-3     1.006       0.2464E-2     1.206   
   -1.690       0.1302E-3     1.006       0.2470E-2     1.206   
   -1.680       0.1308E-3     1.006       0.2477E-2     1.206   
   -1.670       0.1313E-3     1.006       0.2483E-2     1.206   
   -1.660       0.1319E-3     1.006       0.2489E-2     1.207   
   -1.650       0.1325E-3     1.006       0.2496E-2     1.207   
   -1.640       0.1332E-3     1.006       0.2502E-2     1.207   
   -1.630       0.1338E-3     1.006       0.2508E-2     1.207   
   -1.620       0.1344E-3     1.006       0.2515E-2     1.208   
   -1.610       0.1350E-3     1.006       0.2521E-2     1.208   
   -1.600       0.1356E-3     1.006       0.2528E-2     1.208   
   -1.590       0.1362E-3     1.006       0.2534E-2     1.208   
   -1.580       0.1369E-3     1.006       0.2541E-2     1.209   
   -1.570       0.1375E-3     1.006       0.2547E-2     1.209   
   -1.560       0.1382E-3     1.006       0.2554E-2     1.209   
   -1.550       0.1388E-3     1.006       0.2560E-2     1.209   
   -1.540       0.1395E-3     1.006       0.2567E-2     1.210   
   -1.530       0.1401E-3     1.006       0.2574E-2     1.210   
   -1.520       0.1408E-3     1.006       0.2580E-2     1.210   
   -1.510       0.1414E-3     1.006       0.2587E-2     1.210   
   -1.500       0.1421E-3     1.006       0.2594E-2     1.211   
   -1.490       0.1428E-3     1.006       0.2600E-2     1.211   
   -1.480       0.1434E-3     1.006       0.2607E-2     1.211   
   -1.470       0.1441E-3     1.006       0.2614E-2     1.212   
   -1.460       0.1448E-3     1.006       0.2621E-2     1.212   
   -1.450       0.1455E-3     1.006       0.2628E-2     1.212   
   -1.440       0.1462E-3     1.006       0.2635E-2     1.212   
   -1.430       0.1469E-3     1.006       0.2642E-2     1.213   
   -1.420       0.1476E-3     1.006       0.2649E-2     1.213   
   -1.410       0.1483E-3     1.006       0.2656E-2     1.213   
   -1.400       0.1491E-3     1.006       0.2663E-2     1.213   
   -1.390       0.1498E-3     1.006       0.2670E-2     1.214   
   -1.380       0.1505E-3     1.006       0.2677E-2     1.214   
   -1.370       0.1512E-3     1.006       0.2684E-2     1.214   
   -1.360       0.1520E-3     1.006       0.2691E-2     1.214   
   -1.350       0.1527E-3     1.006       0.2698E-2     1.215   
   -1.340       0.1535E-3     1.006       0.2705E-2     1.215   
   -1.330       0.1542E-3     1.006       0.2712E-2     1.215   
   -1.320       0.1550E-3     1.006       0.2720E-2     1.216   
   -1.310       0.1558E-3     1.006       0.2727E-2     1.216   
   -1.300       0.1565E-3     1.006       0.2734E-2     1.216   
   -1.290       0.1573E-3     1.006       0.2742E-2     1.216   
   -1.280       0.1581E-3     1.006       0.2749E-2     1.217   
   -1.270       0.1589E-3     1.006       0.2756E-2     1.217   
   -1.260       0.1597E-3     1.006       0.2764E-2     1.217   
   -1.250       0.1605E-3     1.006       0.2771E-2     1.217   
   -1.240       0.1613E-3     1.006       0.2779E-2     1.218   
   -1.230       0.1621E-3     1.006       0.2786E-2     1.218   
   -1.220       0.1629E-3     1.006       0.2794E-2     1.218   
   -1.210       0.1638E-3     1.006       0.2801E-2     1.219   
   -1.200       0.1646E-3     1.006       0.2809E-2     1.219   
   -1.190       0.1654E-3     1.006       0.2817E-2     1.219   
   -1.180       0.1663E-3     1.007       0.2824E-2     1.219   
   -1.170       0.1671E-3     1.007       0.2832E-2     1.220   
   -1.160       0.1680E-3     1.007       0.2840E-2     1.220   
   -1.150       0.1688E-3     1.007       0.2848E-2     1.220   
   -1.140       0.1697E-3     1.007       0.2855E-2     1.221   
   -1.130       0.1706E-3     1.007       0.2863E-2     1.221   
   -1.120       0.1715E-3     1.007       0.2871E-2     1.221   
   -1.110       0.1724E-3     1.007       0.2879E-2     1.221   
   -1.100       0.1733E-3     1.007       0.2887E-2     1.222   
   -1.090       0.1742E-3     1.007       0.2895E-2     1.222   
   -1.080       0.1751E-3     1.007       0.2903E-2     1.222   
   -1.070       0.1760E-3     1.007       0.2911E-2     1.223   
   -1.060       0.1769E-3     1.007       0.2919E-2     1.223   
   -1.050       0.1779E-3     1.007       0.2927E-2     1.223   
   -1.040       0.1788E-3     1.007       0.2936E-2     1.223   
   -1.030       0.1798E-3     1.007       0.2944E-2     1.224   
   -1.020       0.1807E-3     1.007       0.2952E-2     1.224   
   -1.010       0.1817E-3     1.007       0.2960E-2     1.224   
   -1.000       0.1827E-3     1.007       0.2969E-2     1.225   
   -.9900       0.1837E-3     1.007       0.2977E-2     1.225   
   -.9800       0.1846E-3     1.007       0.2985E-2     1.225   
   -.9700       0.1856E-3     1.007       0.2994E-2     1.226   
   -.9600       0.1866E-3     1.007       0.3002E-2     1.226   
   -.9500       0.1877E-3     1.007       0.3011E-2     1.226   
   -.9400       0.1887E-3     1.007       0.3019E-2     1.226   
   -.9300       0.1897E-3     1.007       0.3028E-2     1.227   
   -.9200       0.1908E-3     1.007       0.3036E-2     1.227   
   -.9100       0.1918E-3     1.007       0.3045E-2     1.227   
   -.9000       0.1929E-3     1.007       0.3054E-2     1.228   
   -.8900       0.1939E-3     1.007       0.3063E-2     1.228   
   -.8800       0.1950E-3     1.007       0.3071E-2     1.228   
   -.8700       0.1961E-3     1.007       0.3080E-2     1.229   
   -.8600       0.1972E-3     1.007       0.3089E-2     1.229   
   -.8500       0.1983E-3     1.007       0.3098E-2     1.229   
   -.8400       0.1994E-3     1.007       0.3107E-2     1.229   
   -.8300       0.2005E-3     1.007       0.3116E-2     1.230   
   -.8200       0.2016E-3     1.007       0.3125E-2     1.230   
   -.8100       0.2028E-3     1.007       0.3134E-2     1.230   
   -.8000       0.2039E-3     1.007       0.3143E-2     1.231   
   -.7900       0.2051E-3     1.007       0.3152E-2     1.231   
   -.7800       0.2062E-3     1.007       0.3161E-2     1.231   
   -.7700       0.2074E-3     1.007       0.3170E-2     1.232   
   -.7600       0.2086E-3     1.007       0.3180E-2     1.232   
   -.7500       0.2098E-3     1.007       0.3189E-2     1.232   
   -.7400       0.2110E-3     1.007       0.3198E-2     1.233   
   -.7300       0.2122E-3     1.007       0.3208E-2     1.233   
   -.7200       0.2135E-3     1.007       0.3217E-2     1.233   
   -.7100       0.2147E-3     1.007       0.3227E-2     1.234   
   -.7000       0.2160E-3     1.007       0.3236E-2     1.234   
   -.6900       0.2172E-3     1.007       0.3246E-2     1.234   
   -.6800       0.2185E-3     1.007       0.3255E-2     1.235   
   -.6700       0.2198E-3     1.007       0.3265E-2     1.235   
   -.6600       0.2211E-3     1.008       0.3275E-2     1.235   
   -.6500       0.2224E-3     1.008       0.3284E-2     1.236   
   -.6400       0.2237E-3     1.008       0.3294E-2     1.236   
   -.6300       0.2250E-3     1.008       0.3304E-2     1.236   
   -.6200       0.2264E-3     1.008       0.3314E-2     1.237   
   -.6100       0.2277E-3     1.008       0.3324E-2     1.237   
   -.6000       0.2291E-3     1.008       0.3334E-2     1.237   
   -.5900       0.2305E-3     1.008       0.3344E-2     1.238   
   -.5800       0.2319E-3     1.008       0.3354E-2     1.238   
   -.5700       0.2333E-3     1.008       0.3364E-2     1.238   
   -.5600       0.2347E-3     1.008       0.3374E-2     1.239   
   -.5500       0.2361E-3     1.008       0.3385E-2     1.239   
   -.5400       0.2376E-3     1.008       0.3395E-2     1.239   
   -.5300       0.2390E-3     1.008       0.3405E-2     1.240   
   -.5200       0.2405E-3     1.008       0.3416E-2     1.240   
   -.5100       0.2420E-3     1.008       0.3426E-2     1.240   
   -.5000       0.2435E-3     1.008       0.3436E-2     1.241   
   -.4900       0.2450E-3     1.008       0.3447E-2     1.241   
   -.4800       0.2465E-3     1.008       0.3457E-2     1.241   
   -.4700       0.2481E-3     1.008       0.3468E-2     1.242   
   -.4600       0.2496E-3     1.008       0.3479E-2     1.242   
   -.4500       0.2512E-3     1.008       0.3490E-2     1.242   
   -.4400       0.2528E-3     1.008       0.3500E-2     1.243   
   -.4300       0.2544E-3     1.008       0.3511E-2     1.243   
   -.4200       0.2560E-3     1.008       0.3522E-2     1.243   
   -.4100       0.2576E-3     1.008       0.3533E-2     1.244   
   -.4000       0.2592E-3     1.008       0.3544E-2     1.244   
   -.3900       0.2609E-3     1.008       0.3555E-2     1.244   
   -.3800       0.2626E-3     1.008       0.3566E-2     1.245   
   -.3700       0.2643E-3     1.008       0.3577E-2     1.245   
   -.3600       0.2660E-3     1.008       0.3588E-2     1.245   
   -.3500       0.2677E-3     1.008       0.3600E-2     1.246   
   -.3400       0.2695E-3     1.008       0.3611E-2     1.246   
   -.3300       0.2712E-3     1.008       0.3622E-2     1.247   
   -.3200       0.2730E-3     1.008       0.3634E-2     1.247   
   -.3100       0.2748E-3     1.008       0.3645E-2     1.247   
   -.3000       0.2766E-3     1.008       0.3657E-2     1.248   
   -.2900       0.2784E-3     1.008       0.3669E-2     1.248   
   -.2800       0.2803E-3     1.008       0.3680E-2     1.248   
   -.2700       0.2821E-3     1.008       0.3692E-2     1.249   
   -.2600       0.2840E-3     1.009       0.3704E-2     1.249   
   -.2500       0.2859E-3     1.009       0.3716E-2     1.250   
   -.2400       0.2879E-3     1.009       0.3727E-2     1.250   
   -.2300       0.2898E-3     1.009       0.3739E-2     1.250   
   -.2200       0.2918E-3     1.009       0.3751E-2     1.251   
   -.2100       0.2937E-3     1.009       0.3764E-2     1.251   
   -.2000       0.2958E-3     1.009       0.3776E-2     1.251   
   -.1900       0.2978E-3     1.009       0.3788E-2     1.252   
   -.1800       0.2998E-3     1.009       0.3800E-2     1.252   
   -.1700       0.3019E-3     1.009       0.3813E-2     1.253   
   -.1600       0.3040E-3     1.009       0.3825E-2     1.253   
   -.1500       0.3061E-3     1.009       0.3837E-2     1.253   
   -.1400       0.3082E-3     1.009       0.3850E-2     1.254   
   -.1300       0.3104E-3     1.009       0.3863E-2     1.254   
   -.1200       0.3125E-3     1.009       0.3875E-2     1.254   
   -.1100       0.3147E-3     1.009       0.3888E-2     1.255   
   -.1000       0.3170E-3     1.009       0.3901E-2     1.255   
   -.9000E-1    0.3192E-3     1.009       0.3914E-2     1.256   
   -.8000E-1    0.3215E-3     1.009       0.3926E-2     1.256   
   -.7000E-1    0.3238E-3     1.009       0.3939E-2     1.256   
   -.6000E-1    0.3261E-3     1.009       0.3953E-2     1.257   
   -.5000E-1    0.3284E-3     1.009       0.3966E-2     1.257   
   -.4000E-1    0.3308E-3     1.009       0.3979E-2     1.258   
   -.3000E-1    0.3332E-3     1.009       0.3992E-2     1.258   
   -.2000E-1    0.3356E-3     1.009       0.4005E-2     1.258   
   -.1000E-1    0.3381E-3     1.009       0.4019E-2     1.259   
    0.000       0.3406E-3     1.009       0.4032E-2     1.259   
   0.1000E-1    0.3431E-3     1.009       0.4046E-2     1.260   
   0.2000E-1    0.3456E-3     1.009       0.4060E-2     1.260   
   0.3000E-1    0.3481E-3     1.009       0.4073E-2     1.260   
   0.4000E-1    0.3507E-3     1.009       0.4087E-2     1.261   
   0.5000E-1    0.3533E-3     1.009       0.4101E-2     1.261   
   0.6000E-1    0.3560E-3     1.010       0.4115E-2     1.262   
   0.7000E-1    0.3587E-3     1.010       0.4129E-2     1.262   
   0.8000E-1    0.3614E-3     1.010       0.4143E-2     1.262   
   0.9000E-1    0.3641E-3     1.010       0.4157E-2     1.263   
   0.1000       0.3669E-3     1.010       0.4171E-2     1.263   
   0.1100       0.3697E-3     1.010       0.4186E-2     1.264   
   0.1200       0.3725E-3     1.010       0.4200E-2     1.264   
   0.1300       0.3754E-3     1.010       0.4214E-2     1.265   
   0.1400       0.3782E-3     1.010       0.4229E-2     1.265   
   0.1500       0.3812E-3     1.010       0.4244E-2     1.265   
   0.1600       0.3841E-3     1.010       0.4258E-2     1.266   
   0.1700       0.3871E-3     1.010       0.4273E-2     1.266   
   0.1800       0.3902E-3     1.010       0.4288E-2     1.267   
   0.1900       0.3932E-3     1.010       0.4303E-2     1.267   
   0.2000       0.3963E-3     1.010       0.4318E-2     1.268   
   0.2100       0.3995E-3     1.010       0.4333E-2     1.268   
   0.2200       0.4027E-3     1.010       0.4348E-2     1.268   
   0.2300       0.4059E-3     1.010       0.4364E-2     1.269   
   0.2400       0.4091E-3     1.010       0.4379E-2     1.269   
   0.2500       0.4124E-3     1.010       0.4394E-2     1.270   
   0.2600       0.4158E-3     1.010       0.4410E-2     1.270   
   0.2700       0.4192E-3     1.010       0.4426E-2     1.271   
   0.2800       0.4226E-3     1.010       0.4441E-2     1.271   
   0.2900       0.4260E-3     1.010       0.4457E-2     1.271   
   0.3000       0.4295E-3     1.010       0.4473E-2     1.272   
   0.3100       0.4331E-3     1.010       0.4489E-2     1.272   
   0.3200       0.4367E-3     1.011       0.4505E-2     1.273   
   0.3300       0.4403E-3     1.011       0.4521E-2     1.273   
   0.3400       0.4440E-3     1.011       0.4538E-2     1.274   
   0.3500       0.4477E-3     1.011       0.4554E-2     1.274   
   0.3600       0.4515E-3     1.011       0.4570E-2     1.275   
   0.3700       0.4553E-3     1.011       0.4587E-2     1.275   
   0.3800       0.4592E-3     1.011       0.4604E-2     1.276   
   0.3900       0.4631E-3     1.011       0.4620E-2     1.276   
   0.4000       0.4671E-3     1.011       0.4637E-2     1.276   
   0.4100       0.4711E-3     1.011       0.4654E-2     1.277   
   0.4200       0.4752E-3     1.011       0.4671E-2     1.277   
   0.4300       0.4793E-3     1.011       0.4688E-2     1.278   
   0.4400       0.4835E-3     1.011       0.4706E-2     1.278   
   0.4500       0.4877E-3     1.011       0.4723E-2     1.279   
   0.4600       0.4920E-3     1.011       0.4740E-2     1.279   
   0.4700       0.4963E-3     1.011       0.4758E-2     1.280   
   0.4800       0.5007E-3     1.011       0.4776E-2     1.280   
   0.4900       0.5052E-3     1.011       0.4793E-2     1.281   
   0.5000       0.5097E-3     1.011       0.4811E-2     1.281   
   0.5100       0.5143E-3     1.011       0.4829E-2     1.282   
   0.5200       0.5190E-3     1.011       0.4847E-2     1.282   
   0.5300       0.5237E-3     1.012       0.4865E-2     1.283   
   0.5400       0.5284E-3     1.012       0.4884E-2     1.283   
   0.5500       0.5333E-3     1.012       0.4902E-2     1.284   
   0.5600       0.5382E-3     1.012       0.4921E-2     1.284   
   0.5700       0.5432E-3     1.012       0.4939E-2     1.285   
   0.5800       0.5482E-3     1.012       0.4958E-2     1.285   
   0.5900       0.5533E-3     1.012       0.4977E-2     1.286   
   0.6000       0.5585E-3     1.012       0.4996E-2     1.286   
   0.6100       0.5638E-3     1.012       0.5015E-2     1.287   
   0.6200       0.5691E-3     1.012       0.5034E-2     1.287   
   0.6300       0.5745E-3     1.012       0.5054E-2     1.288   
   0.6400       0.5800E-3     1.012       0.5073E-2     1.288   
   0.6500       0.5856E-3     1.012       0.5093E-2     1.289   
   0.6600       0.5912E-3     1.012       0.5112E-2     1.289   
   0.6700       0.5970E-3     1.012       0.5132E-2     1.290   
   0.6800       0.6028E-3     1.012       0.5152E-2     1.290   
   0.6900       0.6087E-3     1.012       0.5172E-2     1.291   
   0.7000       0.6147E-3     1.013       0.5192E-2     1.291   
   0.7100       0.6207E-3     1.013       0.5212E-2     1.292   
   0.7200       0.6269E-3     1.013       0.5233E-2     1.292   
   0.7300       0.6332E-3     1.013       0.5253E-2     1.293   
   0.7400       0.6395E-3     1.013       0.5274E-2     1.293   
   0.7500       0.6460E-3     1.013       0.5295E-2     1.294   
   0.7600       0.6525E-3     1.013       0.5316E-2     1.294   
   0.7700       0.6591E-3     1.013       0.5337E-2     1.295   
   0.7800       0.6659E-3     1.013       0.5358E-2     1.295   
   0.7900       0.6727E-3     1.013       0.5380E-2     1.296   
   0.8000       0.6797E-3     1.013       0.5401E-2     1.296   
   0.8100       0.6868E-3     1.013       0.5423E-2     1.297   
   0.8200       0.6939E-3     1.013       0.5445E-2     1.298   
   0.8300       0.7012E-3     1.013       0.5466E-2     1.298   
   0.8400       0.7086E-3     1.013       0.5488E-2     1.299   
   0.8500       0.7162E-3     1.013       0.5511E-2     1.299   
   0.8600       0.7238E-3     1.014       0.5533E-2     1.300   
   0.8700       0.7316E-3     1.014       0.5556E-2     1.300   
   0.8800       0.7395E-3     1.014       0.5578E-2     1.301   
   0.8900       0.7475E-3     1.014       0.5601E-2     1.301   
   0.9000       0.7556E-3     1.014       0.5624E-2     1.302   
   0.9100       0.7639E-3     1.014       0.5647E-2     1.303   
   0.9200       0.7723E-3     1.014       0.5670E-2     1.303   
   0.9300       0.7809E-3     1.014       0.5694E-2     1.304   
   0.9400       0.7896E-3     1.014       0.5717E-2     1.304   
   0.9500       0.7985E-3     1.014       0.5741E-2     1.305   
   0.9600       0.8074E-3     1.014       0.5765E-2     1.305   
   0.9700       0.8166E-3     1.014       0.5789E-2     1.306   
   0.9800       0.8259E-3     1.014       0.5813E-2     1.307   
   0.9900       0.8354E-3     1.015       0.5837E-2     1.307   
    1.000       0.8450E-3     1.015       0.5862E-2     1.308   
    1.010       0.8548E-3     1.015       0.5886E-2     1.308   
    1.020       0.8648E-3     1.015       0.5911E-2     1.309   
    1.030       0.8749E-3     1.015       0.5936E-2     1.309   
    1.040       0.8853E-3     1.015       0.5962E-2     1.310   
    1.050       0.8958E-3     1.015       0.5987E-2     1.311   
    1.060       0.9065E-3     1.015       0.6012E-2     1.311   
    1.070       0.9174E-3     1.015       0.6038E-2     1.312   
    1.080       0.9284E-3     1.015       0.6064E-2     1.312   
    1.090       0.9397E-3     1.015       0.6090E-2     1.313   
    1.100       0.9512E-3     1.016       0.6116E-2     1.314   
    1.110       0.9629E-3     1.016       0.6143E-2     1.314   
    1.120       0.9749E-3     1.016       0.6169E-2     1.315   
    1.130       0.9870E-3     1.016       0.6196E-2     1.316   
    1.140       0.9994E-3     1.016       0.6223E-2     1.316   
    1.150       0.1012E-2     1.016       0.6250E-2     1.317   
    1.160       0.1025E-2     1.016       0.6278E-2     1.317   
    1.170       0.1038E-2     1.016       0.6305E-2     1.318   
    1.180       0.1051E-2     1.016       0.6333E-2     1.319   
    1.190       0.1065E-2     1.016       0.6361E-2     1.319   
    1.200       0.1079E-2     1.017       0.6389E-2     1.320   
    1.210       0.1093E-2     1.017       0.6418E-2     1.321   
    1.220       0.1107E-2     1.017       0.6446E-2     1.321   
    1.230       0.1122E-2     1.017       0.6475E-2     1.322   
    1.240       0.1137E-2     1.017       0.6504E-2     1.323   
    1.250       0.1152E-2     1.017       0.6533E-2     1.323   
    1.260       0.1168E-2     1.017       0.6563E-2     1.324   
    1.270       0.1184E-2     1.017       0.6592E-2     1.324   
    1.280       0.1200E-2     1.017       0.6622E-2     1.325   
    1.290       0.1217E-2     1.018       0.6652E-2     1.326   
    1.300       0.1234E-2     1.018       0.6682E-2     1.326   
    1.310       0.1251E-2     1.018       0.6713E-2     1.327   
    1.320       0.1269E-2     1.018       0.6744E-2     1.328   
    1.330       0.1287E-2     1.018       0.6775E-2     1.328   
    1.340       0.1305E-2     1.018       0.6806E-2     1.329   
    1.350       0.1324E-2     1.018       0.6837E-2     1.330   
    1.360       0.1343E-2     1.018       0.6869E-2     1.331   
    1.370       0.1363E-2     1.019       0.6901E-2     1.331   
      1.3800       0.0014       1.0187       0.0069       1.3319
      1.3900       0.0014       1.0189       0.0070       1.3326
      1.4000       0.0014       1.0190       0.0070       1.3333
      1.4100       0.0014       1.0191       0.0070       1.3340
      1.4200       0.0015       1.0193       0.0071       1.3347
      1.4300       0.0015       1.0194       0.0071       1.3354
      1.4400       0.0015       1.0196       0.0071       1.3361
      1.4500       0.0015       1.0197       0.0072       1.3368
      1.4600       0.0016       1.0199       0.0072       1.3375
      1.4700       0.0016       1.0200       0.0072       1.3383
      1.4800       0.0016       1.0202       0.0073       1.3390
      1.4900       0.0016       1.0204       0.0073       1.3397
      1.5000       0.0017       1.0205       0.0073       1.3404
      1.5100       0.0017       1.0207       0.0074       1.3412
      1.5200       0.0017       1.0209       0.0074       1.3419
      1.5300       0.0017       1.0210       0.0074       1.3427
      1.5400       0.0018       1.0212       0.0075       1.3434
      1.5500       0.0018       1.0214       0.0075       1.3442
      1.5600       0.0018       1.0216       0.0076       1.3449
      1.5700       0.0019       1.0217       0.0076       1.3457
      1.5800       0.0019       1.0219       0.0076       1.3464
      1.5900       0.0019       1.0221       0.0077       1.3472
      1.6000       0.0020       1.0223       0.0077       1.3480
      1.6100       0.0020       1.0225       0.0077       1.3487
      1.6200       0.0020       1.0227       0.0078       1.3495
      1.6300       0.0021       1.0229       0.0078       1.3503
      1.6400       0.0021       1.0231       0.0079       1.3511
      1.6500       0.0022       1.0233       0.0079       1.3519
      1.6600       0.0022       1.0235       0.0079       1.3526
      1.6700       0.0022       1.0237       0.0080       1.3534
      1.6800       0.0023       1.0240       0.0080       1.3542
      1.6900       0.0023       1.0242       0.0081       1.3550
      1.7000       0.0024       1.0244       0.0081       1.3559
      1.7100       0.0024       1.0247       0.0081       1.3567
      1.7200       0.0025       1.0249       0.0082       1.3575
      1.7300       0.0025       1.0251       0.0082       1.3583
      1.7400       0.0026       1.0254       0.0083       1.3591
      1.7500       0.0026       1.0256       0.0083       1.3600
      1.7600       0.0027       1.0259       0.0084       1.3608
      1.7700       0.0027       1.0262       0.0084       1.3616
      1.7800       0.0028       1.0264       0.0084       1.3625
      1.7900       0.0028       1.0267       0.0085       1.3633
      1.8000       0.0029       1.0270       0.0085       1.3642
      1.8100       0.0030       1.0273       0.0086       1.3650
      1.8200       0.0030       1.0276       0.0086       1.3659
      1.8300       0.0031       1.0279       0.0087       1.3667
      1.8400       0.0032       1.0282       0.0087       1.3676
      1.8500       0.0032       1.0285       0.0088       1.3685
      1.8600       0.0033       1.0288       0.0088       1.3694
      1.8700       0.0034       1.0291       0.0089       1.3702
      1.8800       0.0034       1.0294       0.0089       1.3711
      1.8900       0.0035       1.0298       0.0090       1.3720
      1.9000       0.0036       1.0301       0.0090       1.3729
      1.9100       0.0037       1.0305       0.0091       1.3738
      1.9200       0.0038       1.0309       0.0091       1.3747
      1.9300       0.0039       1.0312       0.0092       1.3756
      1.9400       0.0040       1.0316       0.0092       1.3766
      1.9500       0.0041       1.0320       0.0093       1.3775
      1.9600       0.0042       1.0324       0.0093       1.3784
      1.9700       0.0043       1.0328       0.0094       1.3793
      1.9800       0.0044       1.0332       0.0094       1.3803
      1.9900       0.0045       1.0337       0.0095       1.3812
      2.0000       0.0046       1.0341       0.0095       1.3822
      2.0100       0.0048       1.0346       0.0096       1.3831
      2.0200       0.0049       1.0350       0.0096       1.3841
      2.0300       0.0050       1.0355       0.0097       1.3850
      2.0400       0.0052       1.0360       0.0098       1.3860
      2.0500       0.0053       1.0365       0.0098       1.3870
      2.0600       0.0055       1.0370       0.0099       1.3880
      2.0700       0.0057       1.0375       0.0099       1.3890
      2.0800       0.0058       1.0381       0.0100       1.3900
      2.0900       0.0060       1.0387       0.0100       1.3910
      2.1000       0.0062       1.0392       0.0101       1.3920
      2.1100       0.0064       1.0398       0.0102       1.3930
      2.1200       0.0066       1.0404       0.0102       1.3940
      2.1300       0.0068       1.0411       0.0103       1.3950
      2.1400       0.0070       1.0417       0.0103       1.3960
      2.1500       0.0073       1.0424       0.0104       1.3971
      2.1600       0.0075       1.0431       0.0105       1.3981
      2.1700       0.0078       1.0438       0.0105       1.3992
      2.1800       0.0080       1.0446       0.0106       1.4002
      2.1900       0.0083       1.0453       0.0107       1.4013
      2.2000       0.0086       1.0461       0.0107       1.4023
      2.2100       0.0090       1.0469       0.0108       1.4034
      2.2200       0.0093       1.0478       0.0109       1.4045
      2.2300       0.0097       1.0487       0.0109       1.4056
     2.24000      0.01004      1.04958      0.01099      1.40668
     2.25000      0.01044      1.05052      0.01106      1.40778
     2.26000      0.01087      1.05150      0.01113      1.40889
     2.27000      0.01132      1.05251      0.01120      1.41000
     2.28000      0.01181      1.05356      0.01127      1.41113
     2.29000      0.01232      1.05466      0.01135      1.41225
     2.30000      0.01286      1.05579      0.01142      1.41339
     2.31000      0.01345      1.05697      0.01149      1.41453
     2.32000      0.01407      1.05820      0.01157      1.41568
     2.33000      0.01473      1.05947      0.01164      1.41684
     2.34000      0.01544      1.06080      0.01172      1.41801
     2.35000      0.01621      1.06219      0.01179      1.41918
     2.36000      0.01703      1.06363      0.01187      1.42036
     2.37000      0.01791      1.06514      0.01195      1.42155
     2.38000      0.01886      1.06671      0.01203      1.42274
     2.39000      0.01989      1.06835      0.01211      1.42395
     2.40000      0.02100      1.07007      0.01219      1.42516
     2.41000      0.02220      1.07186      0.01227      1.42638
     2.42000      0.02351      1.07374      0.01235      1.42761
     2.43000      0.02493      1.07570      0.01244      1.42884
     2.44000      0.02647      1.07775      0.01252      1.43009
     2.45000      0.02816      1.07989      0.01261      1.43134
     2.46000      0.03001      1.08214      0.01269      1.43260
     2.47000      0.03204      1.08448      0.01278      1.43387
     2.48000      0.03427      1.08693      0.01287      1.43515
     2.49000      0.03673      1.08949      0.01296      1.43644
     2.50000      0.03944      1.09216      0.01305      1.43774
     2.51000      0.04245      1.09494      0.01314      1.43904
     2.52000      0.04579      1.09782      0.01323      1.44036
     2.53000      0.04950      1.10080      0.01333      1.44168
     2.54000      0.05364      1.10386      0.01342      1.44302
     2.55000      0.05827      1.10699      0.01352      1.44436
     2.56000      0.06345      1.11016      0.01362      1.44571
     2.57000      0.06927      1.11334      0.01371      1.44708
     2.58000      0.07581      1.11645      0.01381      1.44845
     2.59000      0.08316      1.11943      0.01391      1.44983
     2.60000      0.09144      1.12216      0.01402      1.45122
     2.61000      0.10073      1.12451      0.01412      1.45263
     2.62000      0.11116      1.12628      0.01422      1.45404
     2.63000      0.12278      1.12721      0.01433      1.45546
     2.64000      0.13567      1.12701      0.01444      1.45690
     2.65000      0.14979      1.12527      0.01455      1.45834
     2.66000      0.16502      1.12153      0.01466      1.45980
     2.67000      0.18111      1.11530      0.01477      1.46126
     2.68000      0.19756      1.10607      0.01488      1.46274
     2.69000      0.21367      1.09341      0.01499      1.46423
     2.70000      0.22849      1.07710      0.01511      1.46573
     2.71000      0.24090      1.05726      0.01523      1.46724
     2.72000      0.24978      1.03446      0.01534      1.46877
     2.73000      0.25418      1.00970      0.01546      1.47030
     2.74000      0.25361      0.98437      0.01559      1.47185
     2.75000      0.24812      0.95993      0.01571      1.47341
     2.76000      0.23833      0.93771      0.01583      1.47498
     2.77000      0.22524      0.91863      0.01596      1.47656
     2.78000      0.20999      0.90315      0.01609      1.47816
     2.79000      0.19368      0.89131      0.01622      1.47977
     2.80000      0.17722      0.88283      0.01635      1.48139
     2.81000      0.16127      0.87725      0.01648      1.48303
     2.82000      0.14626      0.87405      0.01662      1.48468
     2.83000      0.13241      0.87273      0.01676      1.48634
     2.84000      0.11982      0.87285      0.01690      1.48801
     2.85000      0.10848      0.87403      0.01704      1.48970
     2.86000      0.09834      0.87597      0.01718      1.49141
     2.87000      0.08930      0.87844      0.01733      1.49313
     2.88000      0.08126      0.88126      0.01747      1.49486
     2.89000      0.07412      0.88428      0.01762      1.49661
     2.90000      0.06776      0.88742      0.01777      1.49837
     2.91000      0.06211      0.89060      0.01793      1.50015
     2.92000      0.05707      0.89377      0.01808      1.50194
     2.93000      0.05257      0.89689      0.01824      1.50375
     2.94000      0.04854      0.89994      0.01840      1.50557
     2.95000      0.04493      0.90290      0.01856      1.50741
     2.96000      0.04168      0.90575      0.01873      1.50927
     2.97000      0.03875      0.90850      0.01890      1.51114
     2.98000      0.03610      0.91114      0.01907      1.51303
     2.99000      0.03370      0.91368      0.01924      1.51494
     3.00000      0.03152      0.91610      0.01942      1.51686
     3.01000      0.02954      0.91842      0.01959      1.51880
     3.02000      0.02773      0.92064      0.01978      1.52076
     3.03000      0.02608      0.92276      0.01996      1.52274
     3.04000      0.02457      0.92479      0.02015      1.52474
     3.05000      0.02318      0.92673      0.02034      1.52675
     3.06000      0.02190      0.92858      0.02053      1.52878
     3.07000      0.02072      0.93036      0.02073      1.53083
     3.08000      0.01963      0.93205      0.02092      1.53291
     3.09000      0.01862      0.93368      0.02113      1.53500
     3.10000      0.01769      0.93524      0.02133      1.53711
     3.11000      0.01682      0.93673      0.02154      1.53924
     3.12000      0.01601      0.93816      0.02175      1.54139
     3.13000      0.01526      0.93953      0.02197      1.54357
     3.14000      0.01456      0.94085      0.02219      1.54576
     3.15000      0.01391      0.94211      0.02241      1.54798
     3.16000      0.01330      0.94332      0.02264      1.55022
     3.17000      0.01273      0.94449      0.02287      1.55248
     3.18000      0.01219      0.94562      0.02311      1.55477
     3.19000      0.01168      0.94670      0.02335      1.55708
     3.20000      0.01121      0.94774      0.02359      1.55941
     3.21000      0.01076      0.94874      0.02384      1.56177
     3.22000      0.01034      0.94971      0.02409      1.56415
      3.2300       0.0099       0.9506       0.0243       1.5666
      3.2400       0.0096       0.9515       0.0246       1.5690
      3.2500       0.0092       0.9524       0.0249       1.5714
      3.2600       0.0089       0.9533       0.0251       1.5739
      3.2700       0.0086       0.9541       0.0254       1.5764
      3.2800       0.0083       0.9549       0.0257       1.5790
      3.2900       0.0080       0.9556       0.0260       1.5815
      3.3000       0.0077       0.9564       0.0263       1.5841
      3.3100       0.0075       0.9571       0.0266       1.5868
      3.3200       0.0072       0.9578       0.0269       1.5894
      3.3300       0.0070       0.9584       0.0272       1.5921
      3.3400       0.0068       0.9591       0.0275       1.5948
      3.3500       0.0065       0.9597       0.0278       1.5976
      3.3600       0.0063       0.9603       0.0282       1.6003
      3.3700       0.0061       0.9609       0.0285       1.6031
      3.3800       0.0060       0.9615       0.0288       1.6060
      3.3900       0.0058       0.9620       0.0292       1.6089
      3.4000       0.0056       0.9626       0.0295       1.6118
      3.4100       0.0055       0.9631       0.0299       1.6147
      3.4200       0.0053       0.9636       0.0303       1.6177
      3.4300       0.0052       0.9641       0.0307       1.6207
      3.4400       0.0050       0.9646       0.0310       1.6238
      3.4500       0.0049       0.9651       0.0314       1.6269
      3.4600       0.0047       0.9656       0.0318       1.6300
      3.4700       0.0046       0.9660       0.0323       1.6332
      3.4800       0.0045       0.9664       0.0327       1.6364
      3.4900       0.0044       0.9669       0.0331       1.6397
      3.5000       0.0043       0.9673       0.0335       1.6430
      3.5100       0.0042       0.9677       0.0340       1.6463
      3.5200       0.0041       0.9681       0.0345       1.6497
      3.5300       0.0040       0.9685       0.0349       1.6531
      3.5400       0.0039       0.9689       0.0354       1.6566
      3.5500       0.0038       0.9692       0.0359       1.6601
      3.5600       0.0037       0.9696       0.0364       1.6637
      3.5700       0.0036       0.9700       0.0369       1.6673
    3.580       0.3510E-2    0.9703       0.3746E-1     1.671   
    3.590       0.3430E-2    0.9706       0.3801E-1     1.675   
    3.600       0.3352E-2    0.9710       0.3856E-1     1.679   
    3.610       0.3277E-2    0.9713       0.3914E-1     1.682   
    3.620       0.3204E-2    0.9716       0.3972E-1     1.686   
    3.630       0.3134E-2    0.9719       0.4032E-1     1.690   
    3.640       0.3066E-2    0.9722       0.4094E-1     1.694   
    3.650       0.3000E-2    0.9725       0.4157E-1     1.698   
    3.660       0.2937E-2    0.9728       0.4222E-1     1.702   
    3.670       0.2875E-2    0.9731       0.4289E-1     1.707   
    3.680       0.2815E-2    0.9734       0.4357E-1     1.711   
    3.690       0.2757E-2    0.9736       0.4428E-1     1.715   
    3.700       0.2701E-2    0.9739       0.4500E-1     1.720   
    3.710       0.2646E-2    0.9742       0.4574E-1     1.724   
    3.720       0.2594E-2    0.9744       0.4651E-1     1.729   
    3.730       0.2542E-2    0.9747       0.4729E-1     1.733   
    3.740       0.2493E-2    0.9749       0.4810E-1     1.738   
    3.750       0.2444E-2    0.9752       0.4893E-1     1.743   
    3.760       0.2397E-2    0.9754       0.4979E-1     1.748   
    3.770       0.2352E-2    0.9756       0.5067E-1     1.752   
    3.780       0.2307E-2    0.9759       0.5158E-1     1.757   
    3.790       0.2264E-2    0.9761       0.5252E-1     1.763   
    3.800       0.2222E-2    0.9763       0.5349E-1     1.768   
    3.810       0.2182E-2    0.9765       0.5448E-1     1.773   
    3.820       0.2142E-2    0.9767       0.5551E-1     1.778   
    3.830       0.2103E-2    0.9769       0.5657E-1     1.784   
    3.840       0.2066E-2    0.9771       0.5767E-1     1.790   
    3.850       0.2029E-2    0.9774       0.5880E-1     1.795   
    3.860       0.1994E-2    0.9775       0.5997E-1     1.801   
    3.870       0.1959E-2    0.9777       0.6118E-1     1.807   
    3.880       0.1925E-2    0.9779       0.6243E-1     1.813   
    3.890       0.1892E-2    0.9781       0.6372E-1     1.819   
    3.900       0.1860E-2    0.9783       0.6506E-1     1.825   
    3.910       0.1829E-2    0.9785       0.6645E-1     1.832   
    3.920       0.1798E-2    0.9787       0.6788E-1     1.838   
    3.930       0.1769E-2    0.9788       0.6937E-1     1.845   
    3.940       0.1740E-2    0.9790       0.7092E-1     1.852   
    3.950       0.1711E-2    0.9792       0.7252E-1     1.859   
    3.960       0.1684E-2    0.9794       0.7419E-1     1.866   
    3.970       0.1657E-2    0.9795       0.7592E-1     1.873   
    3.980       0.1630E-2    0.9797       0.7771E-1     1.881   
    3.990       0.1605E-2    0.9798       0.7958E-1     1.888   
    4.000       0.1580E-2    0.9800       0.8153E-1     1.896   
    4.010       0.1555E-2    0.9802       0.8356E-1     1.904   
    4.020       0.1531E-2    0.9803       0.8567E-1     1.912   
    4.030       0.1508E-2    0.9805       0.8787E-1     1.921   
    4.040       0.1485E-2    0.9806       0.9016E-1     1.929   
    4.050       0.1463E-2    0.9807       0.9256E-1     1.938   
    4.060       0.1441E-2    0.9809       0.9506E-1     1.947   
    4.070       0.1419E-2    0.9810       0.9768E-1     1.956   
    4.080       0.1399E-2    0.9812       0.1004        1.966   
    4.090       0.1378E-2    0.9813       0.1033        1.975   
    4.100       0.1358E-2    0.9814       0.1063        1.985   
    4.110       0.1339E-2    0.9816       0.1094        1.996   
    4.120       0.1319E-2    0.9817       0.1127        2.006   
    4.130       0.1301E-2    0.9818       0.1162        2.017   
    4.140       0.1282E-2    0.9820       0.1199        2.028   
    4.150       0.1264E-2    0.9821       0.1237        2.040   
    4.160       0.1247E-2    0.9822       0.1277        2.051   
    4.170       0.1230E-2    0.9823       0.1320        2.064   
    4.180       0.1213E-2    0.9825       0.1365        2.076   
    4.190       0.1196E-2    0.9826       0.1413        2.089   
    4.200       0.1180E-2    0.9827       0.1463        2.103   
    4.210       0.1164E-2    0.9828       0.1516        2.116   
    4.220       0.1149E-2    0.9829       0.1572        2.131   
    4.230       0.1133E-2    0.9830       0.1632        2.145   
    4.240       0.1118E-2    0.9832       0.1696        2.161   
    4.250       0.1104E-2    0.9833       0.1763        2.176   
    4.260       0.1089E-2    0.9834       0.1835        2.193   
    4.270       0.1075E-2    0.9835       0.1912        2.210   
    4.280       0.1062E-2    0.9836       0.1994        2.227   
    4.290       0.1048E-2    0.9837       0.2082        2.245   
    4.300       0.1035E-2    0.9838       0.2176        2.264   
    4.310       0.1022E-2    0.9839       0.2277        2.284   
    4.320       0.1009E-2    0.9840       0.2385        2.304   
    4.330       0.9963E-3    0.9841       0.2502        2.326   
    4.340       0.9840E-3    0.9842       0.2627        2.348   
    4.350       0.9719E-3    0.9843       0.2763        2.371   
    4.360       0.9600E-3    0.9844       0.2910        2.395   
    4.370       0.9484E-3    0.9845       0.3070        2.419   
    4.380       0.9369E-3    0.9846       0.3243        2.445   
    4.390       0.9257E-3    0.9847       0.3432        2.472   
    4.400       0.9147E-3    0.9848       0.3639        2.501   
    4.410       0.9038E-3    0.9849       0.3864        2.530   
    4.420       0.8932E-3    0.9849       0.4112        2.560   
    4.430       0.8827E-3    0.9850       0.4383        2.592   
    4.440       0.8724E-3    0.9851       0.4683        2.625   
    4.450       0.8623E-3    0.9852       0.5014        2.660   
    4.460       0.8524E-3    0.9853       0.5380        2.695   
    4.470       0.8426E-3    0.9854       0.5787        2.732   
    4.480       0.8330E-3    0.9855       0.6239        2.770   
    4.490       0.8236E-3    0.9855       0.6743        2.808   
    4.500       0.8143E-3    0.9856       0.7306        2.848   
    4.510       0.8052E-3    0.9857       0.7936        2.887   
    4.520       0.7963E-3    0.9858       0.8642        2.926   
    4.530       0.7875E-3    0.9859       0.9433        2.963   
    4.540       0.7788E-3    0.9859        1.032        2.998   
    4.550       0.7703E-3    0.9860        1.131        3.029   
    4.560       0.7619E-3    0.9861        1.242        3.055   
    4.570       0.7536E-3    0.9862        1.364        3.072   
    4.580       0.7455E-3    0.9862        1.499        3.077   
    4.590       0.7375E-3    0.9863        1.646        3.068   
    4.600       0.7297E-3    0.9864        1.803        3.039   
    4.610       0.7219E-3    0.9865        1.967        2.988   
    4.620       0.7143E-3    0.9865        2.133        2.911   
    4.630       0.7068E-3    0.9866        2.297        2.805   
    4.640       0.6994E-3    0.9867        2.451        2.670   
    4.650       0.6922E-3    0.9867        2.588        2.507   
    4.660       0.6850E-3    0.9868        2.703        2.322   
    4.670       0.6780E-3    0.9869        2.791        2.118   
    4.680       0.6711E-3    0.9869        2.850        1.900   
    4.690       0.6642E-3    0.9870        2.878        1.674   
    4.700       0.6575E-3    0.9871        2.873        1.444   
    4.710       0.6509E-3    0.9871        2.833        1.217   
    4.720       0.6444E-3    0.9872        2.760       0.9990   
    4.730       0.6379E-3    0.9873        2.655       0.7978   
    4.740       0.6316E-3    0.9873        2.522       0.6205   
    4.750       0.6254E-3    0.9874        2.369       0.4721   
    4.760       0.6192E-3    0.9875        2.203       0.3553   
    4.770       0.6132E-3    0.9875        2.033       0.2696   
    4.780       0.6072E-3    0.9876        1.865       0.2127   
    4.790       0.6013E-3    0.9876        1.704       0.1807   
    4.800       0.5955E-3    0.9877        1.553       0.1692   
    4.810       0.5898E-3    0.9878        1.415       0.1738   
    4.820       0.5842E-3    0.9878        1.290       0.1907   
    4.830       0.5787E-3    0.9879        1.177       0.2166   
    4.840       0.5732E-3    0.9879        1.076       0.2489   
    4.850       0.5678E-3    0.9880       0.9866       0.2855   
    4.860       0.5625E-3    0.9880       0.9067       0.3248   
    4.870       0.5572E-3    0.9881       0.8358       0.3656   
    4.880       0.5521E-3    0.9882       0.7729       0.4071   
    4.890       0.5470E-3    0.9882       0.7170       0.4485   
    4.900       0.5419E-3    0.9883       0.6673       0.4895   
    4.910       0.5370E-3    0.9883       0.6232       0.5297   
    4.920       0.5321E-3    0.9884       0.5838       0.5688   
    4.930       0.5273E-3    0.9884       0.5488       0.6067   
    4.940       0.5225E-3    0.9885       0.5175       0.6432   
    4.950       0.5178E-3    0.9885       0.4894       0.6783   
    4.960       0.5132E-3    0.9886       0.4642       0.7119   
    4.970       0.5086E-3    0.9886       0.4414       0.7441   
    4.980       0.5041E-3    0.9887       0.4207       0.7748   
    4.990       0.4997E-3    0.9887       0.4017       0.8042   
    5.000       0.4953E-3    0.9888       0.3840       0.8324   
    5.010       0.4909E-3    0.9888       0.3676       0.8596   
    5.020       0.4867E-3    0.9889       0.3521       0.8859   
    5.030       0.4824E-3    0.9889       0.3376       0.9115   
    5.040       0.4783E-3    0.9890       0.3239       0.9367   
    5.050       0.4742E-3    0.9890       0.3112       0.9613   
    5.060       0.4701E-3    0.9891       0.2993       0.9856   
    5.070       0.4661E-3    0.9891       0.2883        1.009   
    5.080       0.4621E-3    0.9892       0.2782        1.033   
    5.090       0.4582E-3    0.9892       0.2688        1.056   
    5.100       0.4544E-3    0.9892       0.2603        1.079   
    5.110       0.4506E-3    0.9893       0.2525        1.101   
    5.120       0.4468E-3    0.9893       0.2454        1.123   
    5.130       0.4431E-3    0.9894       0.2390        1.145   
    5.140       0.4394E-3    0.9894       0.2332        1.166   
    5.150       0.4358E-3    0.9895       0.2279        1.187   
    5.160       0.4322E-3    0.9895       0.2231        1.208   
    5.170       0.4287E-3    0.9896       0.2188        1.228   
    5.180       0.4252E-3    0.9896       0.2150        1.248   
    5.190       0.4217E-3    0.9896       0.2116        1.268   
    5.200       0.4183E-3    0.9897       0.2086        1.287   
    5.210       0.4150E-3    0.9897       0.2060        1.307   
    5.220       0.4116E-3    0.9898       0.2038        1.326   
    5.230       0.4083E-3    0.9898       0.2019        1.345   
    5.240       0.4051E-3    0.9898       0.2003        1.364   
    5.250       0.4019E-3    0.9899       0.1991        1.383   
    5.260       0.3987E-3    0.9899       0.1981        1.401   
    5.270       0.3956E-3    0.9900       0.1975        1.420   
    5.280       0.3925E-3    0.9900       0.1972        1.439   
    5.290       0.3894E-3    0.9900       0.1973        1.457   
    5.300       0.3864E-3    0.9901       0.1976        1.476   
    5.310       0.3834E-3    0.9901       0.1982        1.495   
    5.320       0.3805E-3    0.9902       0.1992        1.513   
    5.330       0.3775E-3    0.9902       0.2004        1.532   
    5.340       0.3746E-3    0.9902       0.2020        1.551   
    5.350       0.3718E-3    0.9903       0.2040        1.570   
    5.360       0.3690E-3    0.9903       0.2063        1.589   
    5.370       0.3662E-3    0.9903       0.2090        1.608   
    5.380       0.3634E-3    0.9904       0.2122        1.627   
    5.390       0.3607E-3    0.9904       0.2157        1.647   
    5.400       0.3580E-3    0.9905       0.2197        1.667   
    5.410       0.3553E-3    0.9905       0.2243        1.686   
    5.420       0.3527E-3    0.9905       0.2293        1.706   
    5.430       0.3501E-3    0.9906       0.2349        1.726   
    5.440       0.3475E-3    0.9906       0.2411        1.746   
    5.450       0.3450E-3    0.9906       0.2480        1.766   
    5.460       0.3424E-3    0.9907       0.2554        1.786   
    5.470       0.3399E-3    0.9907       0.2635        1.806   
    5.480       0.3375E-3    0.9907       0.2721        1.826   
    5.490       0.3350E-3    0.9908       0.2812        1.845   
    5.500       0.3326E-3    0.9908       0.2905        1.864   
    5.510       0.3302E-3    0.9908       0.3000        1.883   
    5.520       0.3279E-3    0.9909       0.3093        1.901   
    5.530       0.3255E-3    0.9909       0.3183        1.919   
    5.540       0.3232E-3    0.9909       0.3268        1.937   
    5.550       0.3209E-3    0.9910       0.3349        1.956   
    5.560       0.3187E-3    0.9910       0.3425        1.976   
    5.570       0.3164E-3    0.9910       0.3499        1.997   
    5.580       0.3142E-3    0.9911       0.3574        2.020   
    5.590       0.3120E-3    0.9911       0.3652        2.044   
    5.600       0.3098E-3    0.9911       0.3736        2.069   
    5.610       0.3077E-3    0.9912       0.3829        2.096   
    5.620       0.3056E-3    0.9912       0.3933        2.125   
    5.630       0.3035E-3    0.9912       0.4050        2.155   
    5.640       0.3014E-3    0.9912       0.4182        2.187   
    5.650       0.2993E-3    0.9913       0.4332        2.220   
    5.660       0.2973E-3    0.9913       0.4500        2.255   
    5.670       0.2953E-3    0.9913       0.4689        2.291   
    5.680       0.2933E-3    0.9914       0.4900        2.329   
    5.690       0.2913E-3    0.9914       0.5137        2.368   
    5.700       0.2893E-3    0.9914       0.5400        2.409   
    5.710       0.2874E-3    0.9914       0.5694        2.451   
    5.720       0.2855E-3    0.9915       0.6021        2.495   
    5.730       0.2836E-3    0.9915       0.6386        2.540   
    5.740       0.2817E-3    0.9915       0.6793        2.587   
    5.750       0.2798E-3    0.9916       0.7247        2.635   
    5.760       0.2780E-3    0.9916       0.7754        2.684   
    5.770       0.2762E-3    0.9916       0.8320        2.734   
    5.780       0.2743E-3    0.9916       0.8955        2.785   
    5.790       0.2726E-3    0.9917       0.9666        2.836   
    5.800       0.2708E-3    0.9917        1.046        2.887   
    5.810       0.2690E-3    0.9917        1.136        2.937   
    5.820       0.2673E-3    0.9918        1.236        2.985   
    5.830       0.2656E-3    0.9918        1.348        3.028   
    5.840       0.2639E-3    0.9918        1.473        3.066   
    5.850       0.2622E-3    0.9918        1.612        3.095   
    5.860       0.2605E-3    0.9919        1.765        3.113   
    5.870       0.2588E-3    0.9919        1.933        3.115   
    5.880       0.2572E-3    0.9919        2.114        3.099   
    5.890       0.2556E-3    0.9919        2.308        3.059   
    5.900       0.2540E-3    0.9920        2.510        2.989   
    5.910       0.2524E-3    0.9920        2.717        2.886   
    5.920       0.2508E-3    0.9920        2.921        2.743   
    5.930       0.2492E-3    0.9920        3.113        2.558   
    5.940       0.2477E-3    0.9921        3.280        2.331   
    5.950       0.2461E-3    0.9921        3.409        2.064   
    5.960       0.2446E-3    0.9921        3.487        1.769   
    5.970       0.2431E-3    0.9921        3.506        1.459   
    5.980       0.2416E-3    0.9922        3.463        1.152   
    5.990       0.2401E-3    0.9922        3.361       0.8670   
    6.000       0.2387E-3    0.9922        3.211       0.6173   
    6.010       0.2372E-3    0.9922        3.028       0.4122   
    6.020       0.2358E-3    0.9923        2.825       0.2545   
    6.030       0.2343E-3    0.9923        2.615       0.1426   
    6.040       0.2329E-3    0.9923        2.409       0.7158E-1
    6.050       0.2315E-3    0.9923        2.213       0.3515E-1
    6.060       0.2301E-3    0.9923        2.032       0.2666E-1
    6.070       0.2288E-3    0.9924        1.867       0.4002E-1
    6.080       0.2274E-3    0.9924        1.720       0.6998E-1
    6.090       0.2260E-3    0.9924        1.589       0.1122   
    6.100       0.2247E-3    0.9924        1.474       0.1634   
    6.110       0.2234E-3    0.9925        1.374       0.2208   
    6.120       0.2221E-3    0.9925        1.287       0.2825   
    6.130       0.2208E-3    0.9925        1.212       0.3471   
    6.140       0.2195E-3    0.9925        1.148       0.4135   
    6.150       0.2182E-3    0.9925        1.093       0.4809   
    6.160       0.2169E-3    0.9926        1.048       0.5490   
    6.170       0.2157E-3    0.9926        1.011       0.6172   
    6.180       0.2144E-3    0.9926       0.9807       0.6855   
    6.190       0.2132E-3    0.9926       0.9579       0.7536   
    6.200       0.2119E-3    0.9927       0.9417       0.8216   
    6.210       0.2107E-3    0.9927       0.9319       0.8894   
    6.220       0.2095E-3    0.9927       0.9282       0.9570   
    6.230       0.2083E-3    0.9927       0.9308        1.025   
    6.240       0.2071E-3    0.9927       0.9395        1.092   
    6.250       0.2060E-3    0.9928       0.9547        1.159   
    6.260       0.2048E-3    0.9928       0.9766        1.226   
    6.270       0.2036E-3    0.9928        1.006        1.293   
    6.280       0.2025E-3    0.9928        1.042        1.360   
    6.290       0.2014E-3    0.9928        1.087        1.426   
    6.300       0.2002E-3    0.9929        1.141        1.491   
    6.310       0.1991E-3    0.9929        1.204        1.554   
    6.320       0.1980E-3    0.9929        1.279        1.615   
    6.330       0.1969E-3    0.9929        1.366        1.672   
    6.340       0.1958E-3    0.9929        1.466        1.723   
    6.350       0.1947E-3    0.9930        1.580        1.767   
    6.360       0.1937E-3    0.9930        1.710        1.799   
    6.370       0.1926E-3    0.9930        1.856        1.818   
    6.380       0.1915E-3    0.9930        2.018        1.818   
    6.390       0.1905E-3    0.9930        2.194        1.792   
    6.400       0.1895E-3    0.9931        2.381        1.736   
    6.410       0.1884E-3    0.9931        2.573        1.644   
    6.420       0.1874E-3    0.9931        2.762        1.509   
    6.430       0.1864E-3    0.9931        2.937        1.329   
    6.440       0.1854E-3    0.9931        3.082        1.105   
    6.450       0.1844E-3    0.9931        3.186       0.8447   
    6.460       0.1834E-3    0.9932        3.235       0.5598   
    6.470       0.1824E-3    0.9932        3.225       0.2671   
    6.480       0.1815E-3    0.9932        3.155       -.1539E-1
    6.490       0.1805E-3    0.9932        3.032       -.2715   
    6.500       0.1795E-3    0.9932        2.870       -.4901   
    6.510       0.1786E-3    0.9933        2.682       -.6652   
    6.520       0.1777E-3    0.9933        2.481       -.7966   
    6.530       0.1767E-3    0.9933        2.278       -.8875   
    6.540       0.1758E-3    0.9933        2.082       -.9434   
    6.550       0.1749E-3    0.9933        1.897       -.9707   
    6.560       0.1740E-3    0.9933        1.726       -.9754   
    6.570       0.1731E-3    0.9934        1.571       -.9630   
    6.580       0.1722E-3    0.9934        1.431       -.9379   
    6.590       0.1713E-3    0.9934        1.306       -.9038   
    6.600       0.1704E-3    0.9934        1.194       -.8635   
    6.610       0.1695E-3    0.9934        1.095       -.8193   
    6.620       0.1686E-3    0.9934        1.007       -.7727   
    6.630       0.1678E-3    0.9935       0.9288       -.7250   
    6.640       0.1669E-3    0.9935       0.8591       -.6771   
    6.650       0.1661E-3    0.9935       0.7971       -.6295   
    6.660       0.1652E-3    0.9935       0.7419       -.5829   
    6.670       0.1644E-3    0.9935       0.6926       -.5375   
    6.680       0.1635E-3    0.9935       0.6484       -.4936   
    6.690       0.1627E-3    0.9936       0.6088       -.4513   
    6.700       0.1619E-3    0.9936       0.5732       -.4107   
    6.710       0.1611E-3    0.9936       0.5410       -.3720   
    6.720       0.1603E-3    0.9936       0.5117       -.3350   
    6.730       0.1595E-3    0.9936       0.4848       -.2998   
    6.740       0.1587E-3    0.9936       0.4600       -.2662   
    6.750       0.1579E-3    0.9937       0.4369       -.2340   
    6.760       0.1571E-3    0.9937       0.4153       -.2031   
    6.770       0.1563E-3    0.9937       0.3950       -.1733   
    6.780       0.1556E-3    0.9937       0.3759       -.1445   
    6.790       0.1548E-3    0.9937       0.3579       -.1164   
    6.800       0.1540E-3    0.9937       0.3411       -.8906E-1
    6.810       0.1533E-3    0.9938       0.3254       -.6242E-1
    6.820       0.1525E-3    0.9938       0.3107       -.3647E-1
    6.830       0.1518E-3    0.9938       0.2970       -.1120E-1
    6.840       0.1511E-3    0.9938       0.2844       0.1338E-1
    6.850       0.1503E-3    0.9938       0.2725       0.3729E-1
    6.860       0.1496E-3    0.9938       0.2616       0.6052E-1
    6.870       0.1489E-3    0.9938       0.2513       0.8309E-1
    6.880       0.1482E-3    0.9939       0.2418       0.1050   
    6.890       0.1474E-3    0.9939       0.2329       0.1263   
    6.900       0.1467E-3    0.9939       0.2246       0.1470   
    6.910       0.1460E-3    0.9939       0.2169       0.1671   
    6.920       0.1453E-3    0.9939       0.2096       0.1866   
    6.930       0.1447E-3    0.9939       0.2028       0.2056   
    6.940       0.1440E-3    0.9939       0.1965       0.2241   
    6.950       0.1433E-3    0.9940       0.1905       0.2421   
    6.960       0.1426E-3    0.9940       0.1848       0.2596   
    6.970       0.1419E-3    0.9940       0.1795       0.2767   
    6.980       0.1413E-3    0.9940       0.1745       0.2934   
    6.990       0.1406E-3    0.9940       0.1698       0.3096   
    7.000       0.1399E-3    0.9940       0.1654       0.3255   
    7.010       0.1393E-3    0.9940       0.1612       0.3409   
    7.020       0.1386E-3    0.9941       0.1572       0.3561   
    7.030       0.1380E-3    0.9941       0.1534       0.3709   
    7.040       0.1374E-3    0.9941       0.1499       0.3854   
    7.050       0.1367E-3    0.9941       0.1465       0.3995   
    7.060       0.1361E-3    0.9941       0.1433       0.4134   
    7.070       0.1355E-3    0.9941       0.1403       0.4270   
    7.080       0.1348E-3    0.9941       0.1375       0.4404   
    7.090       0.1342E-3    0.9942       0.1348       0.4535   
    7.100       0.1336E-3    0.9942       0.1322       0.4664   
    7.110       0.1330E-3    0.9942       0.1298       0.4790   
    7.120       0.1324E-3    0.9942       0.1274       0.4914   
    7.130       0.1318E-3    0.9942       0.1253       0.5037   
    7.140       0.1312E-3    0.9942       0.1232       0.5157   
    7.150       0.1306E-3    0.9942       0.1212       0.5276   
    7.160       0.1300E-3    0.9942       0.1194       0.5392   
    7.170       0.1294E-3    0.9943       0.1177       0.5507   
    7.180       0.1288E-3    0.9943       0.1160       0.5621   
    7.190       0.1283E-3    0.9943       0.1144       0.5733   
    7.200       0.1277E-3    0.9943       0.1130       0.5844   
    7.210       0.1271E-3    0.9943       0.1116       0.5953   
    7.220       0.1266E-3    0.9943       0.1103       0.6061   
    7.230       0.1260E-3    0.9943       0.1091       0.6168   
    7.240       0.1254E-3    0.9943       0.1080       0.6274   
    7.250       0.1249E-3    0.9944       0.1069       0.6379   
    7.260       0.1243E-3    0.9944       0.1060       0.6483   
    7.270       0.1238E-3    0.9944       0.1051       0.6585   
    7.280       0.1232E-3    0.9944       0.1042       0.6688   
    7.290       0.1227E-3    0.9944       0.1035       0.6789   
    7.300       0.1222E-3    0.9944       0.1028       0.6890   
    7.310       0.1216E-3    0.9944       0.1022       0.6990   
    7.320       0.1211E-3    0.9944       0.1017       0.7089   
    7.330       0.1206E-3    0.9945       0.1012       0.7188   
    7.340       0.1201E-3    0.9945       0.1008       0.7287   
    7.350       0.1195E-3    0.9945       0.1005       0.7385   
    7.360       0.1190E-3    0.9945       0.1002       0.7483   
    7.370       0.1185E-3    0.9945       0.1001       0.7581   
    7.380       0.1180E-3    0.9945       0.9995E-1    0.7678   
    7.390       0.1175E-3    0.9945       0.9991E-1    0.7776   
    7.400       0.1170E-3    0.9945       0.9995E-1    0.7873   
    7.410       0.1165E-3    0.9946       0.1001       0.7970   
    7.420       0.1160E-3    0.9946       0.1003       0.8068   
    7.430       0.1155E-3    0.9946       0.1005       0.8165   
    7.440       0.1150E-3    0.9946       0.1009       0.8263   
    7.450       0.1145E-3    0.9946       0.1014       0.8361   
    7.460       0.1140E-3    0.9946       0.1019       0.8460   
    7.470       0.1136E-3    0.9946       0.1025       0.8558   
    7.480       0.1131E-3    0.9946       0.1033       0.8658   
    7.490       0.1126E-3    0.9946       0.1041       0.8758   
    7.500       0.1121E-3    0.9947       0.1050       0.8858   
    7.510       0.1117E-3    0.9947       0.1061       0.8960   
    7.520       0.1112E-3    0.9947       0.1073       0.9062   
    7.530       0.1107E-3    0.9947       0.1086       0.9165   
    7.540       0.1103E-3    0.9947       0.1101       0.9269   
    7.550       0.1098E-3    0.9947       0.1117       0.9375   
    7.560       0.1094E-3    0.9947       0.1134       0.9481   
    7.570       0.1089E-3    0.9947       0.1154       0.9589   
    7.580       0.1085E-3    0.9947       0.1175       0.9699   
    7.590       0.1080E-3    0.9948       0.1198       0.9810   
    7.600       0.1076E-3    0.9948       0.1223       0.9923   
    7.610       0.1071E-3    0.9948       0.1251        1.004   
    7.620       0.1067E-3    0.9948       0.1281        1.015   
    7.630       0.1063E-3    0.9948       0.1314        1.027   
    7.640       0.1058E-3    0.9948       0.1351        1.039   
    7.650       0.1054E-3    0.9948       0.1390        1.052   
    7.660       0.1050E-3    0.9948       0.1434        1.064   
    7.670       0.1045E-3    0.9948       0.1482        1.077   
    7.680       0.1041E-3    0.9948       0.1534        1.090   
    7.690       0.1037E-3    0.9949       0.1592        1.104   
    7.700       0.1033E-3    0.9949       0.1655        1.117   
    7.710       0.1029E-3    0.9949       0.1725        1.131   
    7.720       0.1025E-3    0.9949       0.1803        1.146   
    7.730       0.1021E-3    0.9949       0.1888        1.160   
    7.740       0.1016E-3    0.9949       0.1983        1.175   
    7.750       0.1012E-3    0.9949       0.2089        1.191   
    7.760       0.1008E-3    0.9949       0.2207        1.206   
    7.770       0.1004E-3    0.9949       0.2338        1.222   
    7.780       0.1000E-3    0.9950       0.2484        1.237   
    7.790       0.9965E-4    0.9950       0.2648        1.253   
    7.800       0.9925E-4    0.9950       0.2830        1.268   
    7.810       0.9886E-4    0.9950       0.3034        1.283   
    7.820       0.9848E-4    0.9950       0.3261        1.298   
    7.830       0.9809E-4    0.9950       0.3514        1.311   
    7.840       0.9771E-4    0.9950       0.3792        1.322   
    7.850       0.9732E-4    0.9950       0.4097        1.331   
    7.860       0.9694E-4    0.9950       0.4429        1.338   
    7.870       0.9657E-4    0.9950       0.4787        1.341   
    7.880       0.9619E-4    0.9950       0.5166        1.339   
    7.890       0.9582E-4    0.9951       0.5561        1.333   
    7.900       0.9545E-4    0.9951       0.5965        1.320   
    7.910       0.9508E-4    0.9951       0.6365        1.300   
    7.920       0.9472E-4    0.9951       0.6745        1.273   
    7.930       0.9435E-4    0.9951       0.7083        1.238   
    7.940       0.9399E-4    0.9951       0.7356        1.195   
    7.950       0.9363E-4    0.9951       0.7537        1.147   
    7.960       0.9327E-4    0.9951       0.7610        1.096   
    7.970       0.9292E-4    0.9951       0.7567        1.045   
    7.980       0.9256E-4    0.9951       0.7413       0.9981   
    7.990       0.9221E-4    0.9952       0.7166       0.9576   
    8.000       0.9186E-4    0.9952       0.6853       0.9256   
    8.010       0.9151E-4    0.9952       0.6500       0.9028   
    8.020       0.9117E-4    0.9952       0.6133       0.8892   
    8.030       0.9082E-4    0.9952       0.5774       0.8838   
    8.040       0.9048E-4    0.9952       0.5436       0.8855   
    8.050       0.9014E-4    0.9952       0.5130       0.8931   
    8.060       0.8980E-4    0.9952       0.4858       0.9053   
    8.070       0.8947E-4    0.9952       0.4624       0.9212   
    8.080       0.8913E-4    0.9952       0.4428       0.9399   
    8.090       0.8880E-4    0.9952       0.4268       0.9608   
    8.100       0.8847E-4    0.9953       0.4143       0.9833   
    8.110       0.8814E-4    0.9953       0.4052        1.007   
    8.120       0.8781E-4    0.9953       0.3992        1.032   
    8.130       0.8749E-4    0.9953       0.3962        1.057   
    8.140       0.8717E-4    0.9953       0.3963        1.084   
    8.150       0.8684E-4    0.9953       0.3992        1.110   
    8.160       0.8653E-4    0.9953       0.4051        1.137   
    8.170       0.8621E-4    0.9953       0.4140        1.165   
    8.180       0.8589E-4    0.9953       0.4261        1.192   
    8.190       0.8558E-4    0.9953       0.4414        1.220   
    8.200       0.8526E-4    0.9953       0.4603        1.248   
    8.210       0.8495E-4    0.9953       0.4829        1.276   
    8.220       0.8464E-4    0.9954       0.5098        1.304   
    8.230       0.8434E-4    0.9954       0.5413        1.330   
    8.240       0.8403E-4    0.9954       0.5778        1.356   
    8.250       0.8373E-4    0.9954       0.6199        1.380   
    8.260       0.8342E-4    0.9954       0.6681        1.401   
    8.270       0.8312E-4    0.9954       0.7228        1.418   
    8.280       0.8282E-4    0.9954       0.7844        1.430   
    8.290       0.8252E-4    0.9954       0.8531        1.435   
    8.300       0.8223E-4    0.9954       0.9284        1.431   
    8.310       0.8193E-4    0.9954        1.009        1.415   
    8.320       0.8164E-4    0.9954        1.094        1.384   
    8.330       0.8135E-4    0.9954        1.180        1.336   
    8.340       0.8106E-4    0.9955        1.262        1.269   
    8.350       0.8077E-4    0.9955        1.335        1.183   
    8.360       0.8048E-4    0.9955        1.393        1.079   
    8.370       0.8020E-4    0.9955        1.430       0.9618   
    8.380       0.7992E-4    0.9955        1.442       0.8368   
    8.390       0.7963E-4    0.9955        1.429       0.7118   
    8.400       0.7935E-4    0.9955        1.391       0.5941   
    8.410       0.7907E-4    0.9955        1.333       0.4898   
    8.420       0.7880E-4    0.9955        1.260       0.4027   
    8.430       0.7852E-4    0.9955        1.178       0.3342   
    8.440       0.7824E-4    0.9955        1.092       0.2840   
    8.450       0.7797E-4    0.9955        1.007       0.2503   
    8.460       0.7770E-4    0.9956       0.9245       0.2307   
    8.470       0.7743E-4    0.9956       0.8475       0.2224   
    8.480       0.7716E-4    0.9956       0.7766       0.2231   
    8.490       0.7689E-4    0.9956       0.7120       0.2306   
    8.500       0.7663E-4    0.9956       0.6536       0.2432   
    8.510       0.7636E-4    0.9956       0.6011       0.2595   
    8.520       0.7610E-4    0.9956       0.5539       0.2784   
    8.530       0.7583E-4    0.9956       0.5117       0.2992   
    8.540       0.7557E-4    0.9956       0.4740       0.3213   
    8.550       0.7531E-4    0.9956       0.4402       0.3442   
    8.560       0.7506E-4    0.9956       0.4101       0.3675   
    8.570       0.7480E-4    0.9956       0.3833       0.3909   
    8.580       0.7454E-4    0.9956       0.3593       0.4143   
    8.590       0.7429E-4    0.9956       0.3379       0.4375   
    8.600       0.7404E-4    0.9957       0.3187       0.4603   
    8.610       0.7378E-4    0.9957       0.3016       0.4827   
    8.620       0.7353E-4    0.9957       0.2864       0.5047   
    8.630       0.7328E-4    0.9957       0.2727       0.5262   
    8.640       0.7304E-4    0.9957       0.2604       0.5472   
    8.650       0.7279E-4    0.9957       0.2495       0.5678   
    8.660       0.7254E-4    0.9957       0.2397       0.5879   
    8.670       0.7230E-4    0.9957       0.2309       0.6075   
    8.680       0.7206E-4    0.9957       0.2231       0.6268   
    8.690       0.7182E-4    0.9957       0.2161       0.6456   
    8.700       0.7158E-4    0.9957       0.2099       0.6641   
    8.710       0.7134E-4    0.9957       0.2043       0.6823   
    8.720       0.7110E-4    0.9957       0.1995       0.7002   
    8.730       0.7086E-4    0.9958       0.1952       0.7178   
    8.740       0.7063E-4    0.9958       0.1915       0.7351   
    8.750       0.7039E-4    0.9958       0.1883       0.7523   
    8.760       0.7016E-4    0.9958       0.1856       0.7692   
    8.770       0.6993E-4    0.9958       0.1834       0.7860   
    8.780       0.6969E-4    0.9958       0.1816       0.8027   
    8.790       0.6946E-4    0.9958       0.1803       0.8193   
    8.800       0.6924E-4    0.9958       0.1793       0.8358   
    8.810       0.6901E-4    0.9958       0.1788       0.8522   
    8.820       0.6878E-4    0.9958       0.1787       0.8687   
    8.830       0.6856E-4    0.9958       0.1790       0.8852   
    8.840       0.6833E-4    0.9958       0.1796       0.9017   
    8.850       0.6811E-4    0.9958       0.1807       0.9182   
    8.860       0.6789E-4    0.9958       0.1822       0.9349   
    8.870       0.6767E-4    0.9958       0.1841       0.9517   
    8.880       0.6745E-4    0.9959       0.1864       0.9687   
    8.890       0.6723E-4    0.9959       0.1892       0.9858   
    8.900       0.6701E-4    0.9959       0.1925        1.003   
    8.910       0.6679E-4    0.9959       0.1962        1.021   
    8.920       0.6658E-4    0.9959       0.2005        1.039   
    8.930       0.6636E-4    0.9959       0.2054        1.057   
    8.940       0.6615E-4    0.9959       0.2108        1.075   
    8.950       0.6594E-4    0.9959       0.2169        1.094   
    8.960       0.6572E-4    0.9959       0.2237        1.113   
    8.970       0.6551E-4    0.9959       0.2313        1.133   
    8.980       0.6530E-4    0.9959       0.2397        1.153   
    8.990       0.6510E-4    0.9959       0.2490        1.174   
    9.000       0.6489E-4    0.9959       0.2594        1.196   
    9.010       0.6468E-4    0.9959       0.2708        1.217   
    9.020       0.6448E-4    0.9959       0.2836        1.240   
    9.030       0.6427E-4    0.9960       0.2977        1.263   
    9.040       0.6407E-4    0.9960       0.3134        1.287   
    9.050       0.6386E-4    0.9960       0.3308        1.312   
    9.060       0.6366E-4    0.9960       0.3502        1.337   
    9.070       0.6346E-4    0.9960       0.3718        1.363   
    9.080       0.6326E-4    0.9960       0.3960        1.390   
    9.090       0.6306E-4    0.9960       0.4230        1.417   
    9.100       0.6287E-4    0.9960       0.4533        1.445   
    9.110       0.6267E-4    0.9960       0.4872        1.474   
    9.120       0.6247E-4    0.9960       0.5254        1.502   
    9.130       0.6228E-4    0.9960       0.5684        1.531   
    9.140       0.6208E-4    0.9960       0.6168        1.558   
    9.150       0.6189E-4    0.9960       0.6713        1.585   
    9.160       0.6170E-4    0.9960       0.7328        1.610   
    9.170       0.6151E-4    0.9960       0.8019        1.632   
    9.180       0.6132E-4    0.9960       0.8795        1.649   
    9.190       0.6113E-4    0.9961       0.9661        1.660   
    9.200       0.6094E-4    0.9961        1.062        1.662   
    9.210       0.6075E-4    0.9961        1.167        1.653   
    9.220       0.6056E-4    0.9961        1.280        1.628   
    9.230       0.6038E-4    0.9961        1.400        1.584   
    9.240       0.6019E-4    0.9961        1.521        1.517   
    9.250       0.6001E-4    0.9961        1.639        1.425   
    9.260       0.5982E-4    0.9961        1.747        1.306   
    9.270       0.5964E-4    0.9961        1.836        1.161   
    9.280       0.5946E-4    0.9961        1.898       0.9954   
    9.290       0.5928E-4    0.9961        1.927       0.8159   
    9.300       0.5910E-4    0.9961        1.919       0.6334   
    9.310       0.5892E-4    0.9961        1.875       0.4584   
    9.320       0.5874E-4    0.9961        1.800       0.3006   
    9.330       0.5856E-4    0.9961        1.701       0.1663   
    9.340       0.5838E-4    0.9961        1.587       0.5880E-1
    9.350       0.5821E-4    0.9961        1.466       -.2202E-1
    9.360       0.5803E-4    0.9962        1.345       -.7832E-1
    9.370       0.5786E-4    0.9962        1.228       -.1135   
    9.380       0.5768E-4    0.9962        1.117       -.1315   
    9.390       0.5751E-4    0.9962        1.016       -.1359   
    9.400       0.5734E-4    0.9962       0.9240       -.1299   
    9.410       0.5716E-4    0.9962       0.8413       -.1163   
    9.420       0.5699E-4    0.9962       0.7674       -.9719E-1
    9.430       0.5682E-4    0.9962       0.7017       -.7436E-1
    9.440       0.5665E-4    0.9962       0.6434       -.4905E-1
    9.450       0.5649E-4    0.9962       0.5917       -.2225E-1
    9.460       0.5632E-4    0.9962       0.5459       0.5328E-2
    9.470       0.5615E-4    0.9962       0.5054       0.3315E-1
    9.480       0.5598E-4    0.9962       0.4694       0.6085E-1
    9.490       0.5582E-4    0.9962       0.4376       0.8814E-1
    9.500       0.5565E-4    0.9962       0.4094       0.1148   
    9.510       0.5549E-4    0.9962       0.3843       0.1408   
    9.520       0.5533E-4    0.9962       0.3622       0.1659   
    9.530       0.5516E-4    0.9963       0.3426       0.1901   
    9.540       0.5500E-4    0.9963       0.3252       0.2132   
    9.550       0.5484E-4    0.9963       0.3100       0.2354   
    9.560       0.5468E-4    0.9963       0.2965       0.2564   
    9.570       0.5452E-4    0.9963       0.2846       0.2762   
    9.580       0.5436E-4    0.9963       0.2741       0.2948   
    9.590       0.5420E-4    0.9963       0.2647       0.3121   
    9.600       0.5405E-4    0.9963       0.2561       0.3281   
    9.610       0.5389E-4    0.9963       0.2481       0.3429   
    9.620       0.5373E-4    0.9963       0.2403       0.3565   
    9.630       0.5358E-4    0.9963       0.2325       0.3692   
    9.640       0.5342E-4    0.9963       0.2245       0.3812   
    9.650       0.5327E-4    0.9963       0.2164       0.3928   
    9.660       0.5311E-4    0.9963       0.2080       0.4043   
    9.670       0.5296E-4    0.9963       0.1996       0.4158   
    9.680       0.5281E-4    0.9963       0.1913       0.4275   
    9.690       0.5266E-4    0.9963       0.1832       0.4393   
    9.700       0.5250E-4    0.9963       0.1754       0.4514   
    9.710       0.5235E-4    0.9963       0.1681       0.4635   
    9.720       0.5220E-4    0.9964       0.1612       0.4757   
    9.730       0.5206E-4    0.9964       0.1548       0.4879   
    9.740       0.5191E-4    0.9964       0.1489       0.5001   
    9.750       0.5176E-4    0.9964       0.1435       0.5121   
    9.760       0.5161E-4    0.9964       0.1385       0.5240   
    9.770       0.5147E-4    0.9964       0.1339       0.5357   
    9.780       0.5132E-4    0.9964       0.1296       0.5472   
    9.790       0.5117E-4    0.9964       0.1257       0.5585   
    9.800       0.5103E-4    0.9964       0.1221       0.5697   
    9.810       0.5089E-4    0.9964       0.1188       0.5806   
    9.820       0.5074E-4    0.9964       0.1158       0.5913   
    9.830       0.5060E-4    0.9964       0.1130       0.6019   
    9.840       0.5046E-4    0.9964       0.1104       0.6123   
    9.850       0.5032E-4    0.9964       0.1079       0.6225   
    9.860       0.5017E-4    0.9964       0.1057       0.6325   
    9.870       0.5003E-4    0.9964       0.1036       0.6424   
    9.880       0.4989E-4    0.9964       0.1017       0.6521   
    9.890       0.4975E-4    0.9964       0.9997E-1    0.6617   
    9.900       0.4962E-4    0.9964       0.9834E-1    0.6711   
    9.910       0.4948E-4    0.9964       0.9683E-1    0.6805   
    9.920       0.4934E-4    0.9965       0.9544E-1    0.6897   
    9.930       0.4920E-4    0.9965       0.9415E-1    0.6988   
    9.940       0.4907E-4    0.9965       0.9297E-1    0.7078   
    9.950       0.4893E-4    0.9965       0.9189E-1    0.7167   
    9.960       0.4880E-4    0.9965       0.9090E-1    0.7255   
    9.970       0.4866E-4    0.9965       0.9000E-1    0.7342   
    9.980       0.4853E-4    0.9965       0.8918E-1    0.7429   
    9.990       0.4839E-4    0.9965       0.8844E-1    0.7515   
    10.00       0.4826E-4    0.9965       0.8778E-1    0.7601   
# 
# 03/14/2019 at 10:15 YAMBO @ bacalhau [start]
# 03/14/2019 at 10:15                  [end]
#  
# Timing   [Min/Max/Average]: 12s/12s/12s
#
# .-Input file : yambo.in
# | optics                         # [R OPT] Optics
# | bse                            # [R BSE] Bethe Salpeter Equation.
# | bss                            # [R BSS] Bethe Salpeter Equation solver
# | em1s                           # [R Xs] Static Inverse Dielectric Matrix
# | BoseTemp= 0.000000     eV      # Bosonic Temperature
# | FFTGvecs=  3473        RL      # [FFT] Plane-waves
# | X_Threads= 1                   # [OPENMP/X] Number of threads for response functions
# | DIP_Threads= 1                 # [OPENMP/X] Number of threads for dipoles
# | K_Threads= 1                   # [OPENMP/BSK] Number of threads for response functions
# | Chimod= "HARTREE"              # [X] IP/Hartree/ALDA/LRC/PF/BSfxc
# | BSEmod= "resonant"             # [BSE] resonant/retarded/coupling
# | BSKmod= "SEX"                  # [BSE] IP/Hartree/HF/ALDA/SEX/BSfxc
# | BSSmod= "s"                    # [BSS] (h)aydock/(d)iagonalization/(i)nversion/(t)ddft`
# | BSENGexx=  51          RL      # [BSK] Exchange components
# | BSENGBlk=  51          RL      # [BSK] Screened interaction block size
# | #WehCpl                        # [BSK] eh interaction included also in coupling
# | % BSEQptR
# |   1 |  4 |                     # [BSK] Transferred momenta range
# | %
# | % BSEBands
# |   3 | 10 |                     # [BSK] Bands range
# | %
# | % BEnRange
# | -10.00000 | 10.00000 | eV      # [BSS] Energy range
# | %
# | % BDmRange
# |   0.10000 |  0.10000 | eV      # [BSS] Damping range
# | %
# | BEnSteps= 2001                 # [BSS] Energy steps
# | % BLongDir
# | 0.5774E-5 |0.5774E-5 |0.5774E-5 |        # [BSS] [cc] Electric Field
# | %
# | BSSNEig=  5                    # [SLEPC] Number of eigenvalues to compute
# | % BndsRnXs
# |    1 |  60 |                   # [Xs] Polarization function bands
# | %
# | NGsBlkXs=  51          RL      # [Xs] Response block size
# | % DmRngeXs
# | 0.1000E-2 |0.1000E-2 | eV      # [Xs] Damping range
# | %
# | % LongDrXs
# | 0.1000E-4 | 0.000    | 0.000    |        # [Xs] [cc] Electric Field
# | %
