#                                                                     
#   __   __     _        __  __       ____      U  ___  u             
#   \ \ / / U  /"\  U u |" \/ "| u U | __") u    \/"_ \/              
#    \ V /   \/ _ \/   \| |\/| |/   \|  _ \/     | | | |              
#   U_|"|_u  / ___ \    | |  | |     | |_) | .-,_| |_| |              
#     |_|   /_/   \_\   |_|  |_|     |____/   \_)-\___/               
# .-,//|(_   \\    >>  <<,-,,-.     _|| \\_        \\                 
#  \_) (__) (__)  (__)  (./  \.)   (__) (__)      (__)                
#                                                                     
#                                                                     
# Version 5.2.0 Revision 22368 Hash (prev commit) b42959ab6a          
#                    Branch is develop                                
#         MPI+OpenMP+SLK+SLEPC+HDF5_MPI_IO Build                      
#                http://www.yambo-code.org                            
#
# Joint Density of states @ Q(1):  0.999999975E-5   0.00000000      0.00000000    [q->0 direction]
#
# [GEN] GF Energies                               : Perdew, Burke & Ernzerhof(X)+Perdew, Burke & Ernzerhof(C)
# [GEN] Green`s Function                          : Retarded
#
# [GEN] Gauge                                     : Length
# [GEN] [r,Vnl] included                          : yes
#
# DIP band range                                  :   1  20
# DIP band range limits                           :  20   1
# DIP e/h energy range                            :  -1.00000000     -1.00000000    [eV]
# RL vectors in the sum                           :  2637
# [r,Vnl] included                                : yes
# Bands ordered                                   : no
# Direct v evaluation                             : no
# Approach used                                   : G-space v
# Dipoles computed                                : R V P
# Wavefunctions                                   : Perdew, Burke & Ernzerhof(X)+Perdew, Burke & Ernzerhof(C)
#
#
#    E[1] [eV]          Im(jdos)           Re(jdos)
#
        0.000000           0.000000           9.731560
        0.010000           0.144085E-3        9.731569
        0.020000           0.288165E-3        9.731587
        0.030000           0.432257E-3        9.731625
        0.040000           0.576354E-3        9.731674
        0.050000           0.720466E-3        9.731743
        0.060000           0.864585E-3        9.731821
        0.070000           0.001009           9.731912
        0.080000           0.001153           9.732020
        0.090000           0.001297           9.732142
        0.100000           0.001441           9.732281
        0.110000           0.001585           9.732430
        0.120000           0.001730           9.732596
        0.130000           0.001874           9.732778
        0.140000           0.002018           9.732969
        0.150000           0.002163           9.733179
        0.160000           0.002307           9.733405
        0.170000           0.002452           9.733641
        0.180000           0.002596           9.733891
        0.190000           0.002741           9.734160
        0.200000           0.002885           9.734440
        0.210000           0.003030           9.734735
        0.220000           0.003175           9.735046
        0.230000           0.003319           9.735372
        0.240000           0.003464           9.735710
        0.250000           0.003609           9.736065
        0.260000           0.003754           9.736430
        0.270000           0.003899           9.736814
        0.280000           0.004044           9.737212
        0.290000           0.004189           9.737622
        0.300000           0.004335           9.738048
        0.310000           0.004480           9.738486
        0.320000           0.004625           9.738947
        0.330000           0.004771           9.739414
        0.340000           0.004917           9.739899
        0.350000           0.005062           9.740395
        0.360000           0.005208           9.740906
        0.370000           0.005354           9.741433
        0.380000           0.005500           9.741978
        0.390000           0.005646           9.742537
        0.400000           0.005792           9.743109
        0.410000           0.005939           9.743691
        0.420000           0.006085           9.744294
        0.430000           0.006232           9.744909
        0.440000           0.006378           9.745541
        0.450000           0.006525           9.746183
        0.460000           0.006672           9.746842
        0.470000           0.006819           9.747520
        0.480000           0.006966           9.748207
        0.490000           0.007113           9.748907
        0.500000           0.007261           9.749632
        0.510000           0.007409           9.750362
        0.520000           0.007556           9.751108
        0.530000           0.007704           9.751873
        0.540000           0.007852           9.752651
        0.550000           0.008000           9.753439
        0.560000           0.008149           9.754246
        0.570000           0.008297           9.755067
        0.580000           0.008446           9.755905
        0.590000           0.008595           9.756758
        0.600000           0.008744           9.757624
        0.610000           0.008893           9.758506
        0.620000           0.009042           9.759401
        0.630000           0.009191           9.760311
        0.640000           0.009341           9.761237
        0.650000           0.009491           9.762180
        0.660000           0.009641           9.763139
        0.670000           0.009791           9.764109
        0.680000           0.009942           9.765093
        0.690000           0.010092           9.766093
        0.700000           0.010243           9.767111
        0.710000           0.010394           9.768143
        0.720000           0.010545           9.769189
        0.730000           0.010697           9.770248
        0.740000           0.010848           9.771326
        0.750000           0.011000           9.772418
        0.760000           0.011152           9.773525
        0.770000           0.011305           9.774647
        0.780000           0.011457           9.775784
        0.790000           0.011610           9.776934
        0.800000           0.011763           9.778105
        0.810000           0.011916           9.779288
        0.820000           0.012069           9.780484
        0.830000           0.012223           9.781699
        0.840000           0.012377           9.782926
        0.850000           0.012531           9.784174
        0.860000           0.012686           9.785433
        0.870000           0.012840           9.786709
        0.880000           0.012995           9.787998
        0.890000           0.013150           9.789304
        0.900000           0.013306           9.790626
        0.910000           0.013462           9.791965
        0.920000           0.013617           9.793321
        0.930000           0.013774           9.794689
        0.940000           0.013930           9.796070
        0.950000           0.014087           9.797470
        0.960000           0.014244           9.798886
        0.970000           0.014402           9.800319
        0.980000           0.014559           9.801765
        0.990000           0.014717           9.803226
        1.000000           0.014876           9.804707
        1.010000           0.015034           9.806205
        1.020000           0.015193           9.807710
        1.030000           0.015352           9.809237
        1.040000           0.015512           9.810779
        1.050000           0.015672           9.812339
        1.060000           0.015832           9.813912
        1.070000           0.015993           9.815503
        1.080000           0.016153           9.817109
        1.090000           0.016315           9.818731
        1.100000           0.016476           9.820369
        1.110000           0.016638           9.822022
        1.120000           0.016800           9.823695
        1.130000           0.016963           9.825381
        1.140000           0.017126           9.827085
        1.150000           0.017289           9.828804
        1.160000           0.017453           9.830541
        1.170000           0.017617           9.832292
        1.180000           0.017781           9.834064
        1.190000           0.017946           9.835848
        1.200000           0.018111           9.837650
        1.210000           0.018277           9.839466
        1.220000           0.018443           9.841301
        1.230000           0.018609           9.843152
        1.240000           0.018776           9.845021
        1.250000           0.018943           9.846904
        1.260000           0.019111           9.848806
        1.270000           0.019279           9.850724
        1.280000           0.019447           9.852656
        1.290000           0.019616           9.854610
        1.300000           0.019785           9.856577
        1.310000           0.019955           9.858565
        1.320000           0.020125           9.860565
        1.330000           0.020295           9.862586
        1.340000           0.020466           9.864624
        1.350000           0.020638           9.866675
        1.360000           0.020810           9.868751
        1.370000           0.020982           9.870833
        1.380000           0.021155           9.872941
        1.390000           0.021328           9.875064
        1.400000           0.021502           9.877200
        1.410000           0.021676           9.879358
        1.420000           0.021851           9.881536
        1.430000           0.022027           9.883726
        1.440000           0.022202           9.885938
        1.450000           0.022379           9.888164
        1.460000           0.022555           9.890407
        1.470000           0.022733           9.892672
        1.480000           0.022910           9.894951
        1.490000           0.023089           9.897251
        1.500000           0.023268           9.899563
        1.510000           0.023447           9.901901
        1.520000           0.023627           9.904253
        1.530000           0.023808           9.906623
        1.540000           0.023989           9.909009
        1.550000           0.024170           9.911419
        1.560000           0.024352           9.913840
        1.570000           0.024535           9.916283
        1.580000           0.024719           9.918745
        1.590000           0.024902           9.921223
        1.600000           0.025087           9.923718
        1.610000           0.025272           9.926235
        1.620000           0.025458           9.928772
        1.630000           0.025644           9.931324
        1.640000           0.025831           9.933896
        1.650000           0.026019           9.936487
        1.660000           0.026207           9.939096
        1.670000           0.026396           9.941725
        1.680000           0.026585           9.944368
        1.690000           0.026775           9.947035
        1.700000           0.026966           9.949723
        1.710000           0.027157           9.952423
        1.720000           0.027350           9.955150
        1.730000           0.027542           9.957889
        1.740000           0.027736           9.960649
        1.750000           0.027930           9.963431
        1.760000           0.028125           9.966234
        1.770000           0.028320           9.969052
        1.780000           0.028517           9.971894
        1.790000           0.028714           9.974752
        1.800000           0.028911           9.977632
        1.810000           0.029110           9.980529
        1.820000           0.029309           9.983446
        1.830000           0.029509           9.986385
        1.840000           0.029710           9.989345
        1.850000           0.029911           9.992322
        1.860000           0.030113           9.995321
        1.870000           0.030316           9.998337
        1.880000           0.030520           10.00138
        1.890000           0.030725           10.00444
        1.900000           0.030930           10.00752
        1.910000           0.031137           10.01062
        1.920000           0.031344           10.01374
        1.930000           0.031552           10.01689
        1.940000           0.031760           10.02005
        1.950000           0.031970           10.02323
        1.960000           0.032180           10.02643
        1.970000           0.032392           10.02966
        1.980000           0.032604           10.03291
        1.990000           0.032817           10.03617
        2.000000           0.033031           10.03946
        2.010000           0.033246           10.04277
        2.020000           0.033462           10.04610
        2.030000           0.033679           10.04946
        2.040000           0.033896           10.05284
        2.050000           0.034115           10.05623
        2.060000           0.034334           10.05965
        2.070000           0.034555           10.06310
        2.080000           0.034777           10.06656
        2.090000           0.034999           10.07004
        2.100000           0.035223           10.07355
        2.110000           0.035447           10.07708
        2.120000           0.035673           10.08063
        2.130000           0.035899           10.08421
        2.140000           0.036127           10.08781
        2.150000           0.036356           10.09143
        2.160000           0.036585           10.09507
        2.170000           0.036816           10.09874
        2.180000           0.037048           10.10242
        2.190000           0.037281           10.10614
        2.200000           0.037515           10.10987
        2.210000           0.037750           10.11363
        2.220000           0.037987           10.11742
        2.230000           0.038224           10.12122
        2.240000           0.038463           10.12505
        2.250000           0.038703           10.12891
        2.260000           0.038944           10.13279
        2.270000           0.039186           10.13669
        2.280000           0.039430           10.14062
        2.290000           0.039674           10.14457
        2.300000           0.039920           10.14854
        2.310000           0.040168           10.15254
        2.320000           0.040416           10.15657
        2.330000           0.040666           10.16062
        2.340000           0.040917           10.16469
        2.350000           0.041169           10.16879
        2.360000           0.041423           10.17292
        2.370000           0.041678           10.17707
        2.380000           0.041934           10.18124
        2.390000           0.042192           10.18544
        2.400000           0.042451           10.18967
        2.410000           0.042712           10.19393
        2.420000           0.042974           10.19821
        2.430000           0.043237           10.20251
        2.440000           0.043502           10.20684
        2.450000           0.043768           10.21120
        2.460000           0.044036           10.21559
        2.470000           0.044306           10.22000
        2.480000           0.044576           10.22444
        2.490000           0.044849           10.22890
        2.500000           0.045123           10.23340
        2.510000           0.045398           10.23792
        2.520000           0.045676           10.24247
        2.530000           0.045954           10.24704
        2.540000           0.046235           10.25165
        2.550000           0.046517           10.25628
        2.560000           0.046800           10.26094
        2.570000           0.047086           10.26563
        2.580000           0.047373           10.27035
        2.590000           0.047662           10.27509
        2.600000           0.047952           10.27987
        2.610000           0.048245           10.28467
        2.620000           0.048539           10.28950
        2.630000           0.048835           10.29437
        2.640000           0.049133           10.29926
        2.650000           0.049432           10.30418
        2.660000           0.049734           10.30913
        2.670000           0.050037           10.31411
        2.680000           0.050343           10.31913
        2.690000           0.050650           10.32417
        2.700000           0.050960           10.32924
        2.710000           0.051271           10.33435
        2.720000           0.051584           10.33948
        2.730000           0.051900           10.34465
        2.740000           0.052217           10.34985
        2.750000           0.052537           10.35508
        2.760000           0.052859           10.36034
        2.770000           0.053183           10.36564
        2.780000           0.053509           10.37097
        2.790000           0.053837           10.37633
        2.800000           0.054168           10.38172
        2.810000           0.054501           10.38714
        2.820000           0.054836           10.39260
        2.830000           0.055173           10.39810
        2.840000           0.055513           10.40362
        2.850000           0.055855           10.40918
        2.860000           0.056200           10.41477
        2.870000           0.056547           10.42041
        2.880000           0.056897           10.42607
        2.890000           0.057249           10.43177
        2.900000           0.057604           10.43750
        2.910000           0.057961           10.44327
        2.920000           0.058321           10.44908
        2.930000           0.058684           10.45492
        2.940000           0.059049           10.46079
        2.950000           0.059417           10.46671
        2.960000           0.059788           10.47266
        2.970000           0.060161           10.47865
        2.980000           0.060538           10.48467
        2.990000           0.060917           10.49074
        3.000000           0.061299           10.49684
        3.010000           0.061685           10.50298
        3.020000           0.062073           10.50916
        3.030000           0.062464           10.51537
        3.040000           0.062858           10.52163
        3.050000           0.063256           10.52792
        3.060000           0.063657           10.53426
        3.070000           0.064061           10.54063
        3.080000           0.064468           10.54705
        3.090000           0.064878           10.55350
        3.100000           0.065292           10.56000
        3.110000           0.065709           10.56654
        3.120000           0.066130           10.57312
        3.130000           0.066555           10.57974
        3.140000           0.066982           10.58641
        3.150000           0.067414           10.59311
        3.160000           0.067849           10.59987
        3.170000           0.068288           10.60666
        3.180000           0.068730           10.61350
        3.190000           0.069177           10.62038
        3.200000           0.069627           10.62731
        3.210000           0.070082           10.63428
        3.220000           0.070540           10.64130
        3.230000           0.071002           10.64836
        3.240000           0.071469           10.65547
        3.250000           0.071940           10.66263
        3.260000           0.072415           10.66983
        3.270000           0.072894           10.67708
        3.280000           0.073378           10.68438
        3.290000           0.073866           10.69173
        3.300000           0.074359           10.69912
        3.310000           0.074856           10.70657
        3.320000           0.075358           10.71406
        3.330000           0.075865           10.72161
        3.340000           0.076376           10.72920
        3.350000           0.076893           10.73685
        3.360000           0.077415           10.74455
        3.370000           0.077941           10.75230
        3.380000           0.078473           10.76010
        3.390000           0.079010           10.76796
        3.400000           0.079552           10.77587
        3.410000           0.080100           10.78383
        3.420000           0.080653           10.79185
        3.430000           0.081212           10.79993
        3.440000           0.081776           10.80806
        3.450000           0.082347           10.81624
        3.460000           0.082923           10.82449
        3.470000           0.083505           10.83279
        3.480000           0.084093           10.84115
        3.490000           0.084688           10.84957
        3.500000           0.085288           10.85804
        3.510000           0.085895           10.86658
        3.520000           0.086509           10.87518
        3.530000           0.087129           10.88384
        3.540000           0.087756           10.89256
        3.550000           0.088390           10.90134
        3.560000           0.089031           10.91019
        3.570000           0.089679           10.91910
        3.580000           0.090334           10.92808
        3.590000           0.090997           10.93712
        3.600000           0.091667           10.94623
        3.610000           0.092345           10.95541
        3.620000           0.093030           10.96464
        3.630000           0.093724           10.97396
        3.640000           0.094425           10.98334
        3.650000           0.095135           10.99279
        3.660000           0.095854           11.00231
        3.670000           0.096580           11.01190
        3.680000           0.097316           11.02157
        3.690000           0.098060           11.03130
        3.700000           0.098814           11.04112
        3.710000           0.099576           11.05101
        3.720000           0.100348           11.06097
        3.730000           0.101130           11.07101
        3.740000           0.101921           11.08113
        3.750000           0.102723           11.09133
        3.760000           0.103534           11.10161
        3.770000           0.104356           11.11197
        3.780000           0.105189           11.12241
        3.790000           0.106032           11.13293
        3.800000           0.106887           11.14354
        3.810000           0.107752           11.15423
        3.820000           0.108629           11.16502
        3.830000           0.109518           11.17588
        3.840000           0.110419           11.18684
        3.850000           0.111332           11.19789
        3.860000           0.112258           11.20902
        3.870000           0.113196           11.22025
        3.880000           0.114148           11.23158
        3.890000           0.115112           11.24299
        3.900000           0.116091           11.25451
        3.910000           0.117083           11.26612
        3.920000           0.118089           11.27783
        3.930000           0.119110           11.28964
        3.940000           0.120146           11.30155
        3.950000           0.121197           11.31357
        3.960000           0.122264           11.32569
        3.970000           0.123346           11.33792
        3.980000           0.124445           11.35025
        3.990000           0.125560           11.36269
        4.000000           0.126693           11.37525
        4.010000           0.127843           11.38792
        4.020000           0.129010           11.40069
        4.030000           0.130196           11.41359
        4.040000           0.131401           11.42661
        4.050000           0.132625           11.43975
        4.060000           0.133869           11.45301
        4.070000           0.135132           11.46638
        4.080000           0.136416           11.47990
        4.090000           0.137722           11.49353
        4.100000           0.139049           11.50729
        4.110000           0.140398           11.52119
        4.120000           0.141770           11.53523
        4.130000           0.143166           11.54939
        4.140000           0.144585           11.56370
        4.150000           0.146029           11.57814
        4.160000           0.147498           11.59273
        4.170000           0.148993           11.60747
        4.180000           0.150515           11.62236
        4.190000           0.152064           11.63739
        4.200000           0.153641           11.65258
        4.210000           0.155247           11.66793
        4.220000           0.156882           11.68343
        4.230000           0.158548           11.69910
        4.240000           0.160246           11.71493
        4.250000           0.161975           11.73093
        4.260000           0.163738           11.74710
        4.270000           0.165534           11.76345
        4.280000           0.167366           11.77998
        4.290000           0.169234           11.79668
        4.300000           0.171139           11.81358
        4.310000           0.173082           11.83066
        4.320000           0.175064           11.84793
        4.330000           0.177088           11.86540
        4.340000           0.179153           11.88307
        4.350000           0.181261           11.90094
        4.360000           0.183413           11.91902
        4.370000           0.185612           11.93731
        4.380000           0.187857           11.95583
        4.390000           0.190152           11.97456
        4.400000           0.192497           11.99352
        4.410000           0.194894           12.01271
        4.420000           0.197345           12.03214
        4.430000           0.199851           12.05181
        4.440000           0.202415           12.07172
        4.450000           0.205038           12.09189
        4.460000           0.207722           12.11232
        4.470000           0.210470           12.13301
        4.480000           0.213284           12.15397
        4.490000           0.216166           12.17521
        4.500000           0.219118           12.19674
        4.510000           0.222143           12.21855
        4.520000           0.225244           12.24066
        4.530000           0.228424           12.26307
        4.540000           0.231684           12.28579
        4.550000           0.235029           12.30884
        4.560000           0.238462           12.33221
        4.570000           0.241986           12.35592
        4.580000           0.245604           12.37997
        4.590000           0.249320           12.40438
        4.600000           0.253139           12.42914
        4.610000           0.257064           12.45430
        4.620000           0.261099           12.47982
        4.630000           0.265249           12.50574
        4.640000           0.269520           12.53206
        4.650000           0.273915           12.55880
        4.660000           0.278440           12.58597
        4.670000           0.283101           12.61358
        4.680000           0.287904           12.64163
        4.690000           0.292855           12.67016
        4.700000           0.297960           12.69916
        4.710000           0.303227           12.72866
        4.720000           0.308663           12.75866
        4.730000           0.314276           12.78920
        4.740000           0.320073           12.82027
        4.750000           0.326065           12.85190
        4.760000           0.332260           12.88410
        4.770000           0.338668           12.91690
        4.780000           0.345300           12.95032
        4.790000           0.352167           12.98437
        4.800000           0.359282           13.01908
        4.810000           0.366656           13.05446
        4.820000           0.374303           13.09055
        4.830000           0.382239           13.12736
        4.840000           0.390477           13.16493
        4.850000           0.399037           13.20328
        4.860000           0.407934           13.24243
        4.870000           0.417188           13.28243
        4.880000           0.426820           13.32329
        4.890000           0.436851           13.36506
        4.900000           0.447305           13.40777
        4.910000           0.458208           13.45144
        4.920000           0.469586           13.49614
        4.930000           0.481471           13.54190
        4.940000           0.493892           13.58875
        4.950000           0.506885           13.63674
        4.960000           0.520487           13.68592
        4.970000           0.534739           13.73635
        4.980000           0.549684           13.78808
        4.990000           0.565370           13.84116
        5.000000           0.581849           13.89565
        5.010000           0.599177           13.95163
        5.020000           0.617417           14.00915
        5.030000           0.636635           14.06829
        5.040000           0.656905           14.12912
        5.050000           0.678308           14.19173
        5.060000           0.700932           14.25620
        5.070000           0.724875           14.32263
        5.080000           0.750245           14.39111
        5.090000           0.777160           14.46174
        5.100000           0.805752           14.53464
        5.110000           0.836164           14.60992
        5.120000           0.868559           14.68770
        5.130000           0.903116           14.76812
        5.140000           0.940034           14.85131
        5.150000           0.979535           14.93743
        5.160000           1.021869           15.02662
        5.170000           1.067315           15.11906
        5.180000           1.116188           15.21491
        5.190000           1.168839           15.31436
        5.200000           1.225668           15.41759
        5.210000           1.287127           15.52481
        5.220000           1.353727           15.63620
        5.230000           1.426047           15.75198
        5.240000           1.504749           15.87235
        5.250000           1.590587           15.99749
        5.260000           1.684427           16.12760
        5.270000           1.787258           16.26284
        5.280000           1.900213           16.40335
        5.290000           2.024601           16.54918
        5.300000           2.161924           16.70035
        5.310000           2.313914           16.85675
        5.320000           2.482564           17.01813
        5.330000           2.670167           17.18402
        5.340000           2.879360           17.35366
        5.350000           3.113150           17.52593
        5.360000           3.374956           17.69915
        5.370000           3.668625           17.87097
        5.380000           3.998407           18.03807
        5.390000           4.368901           18.19592
        5.400000           4.784911           18.33840
        5.410000           5.251074           18.45732
        5.420000           5.771469           18.54200
        5.430000           6.348716           18.57877
        5.440000           6.982796           18.55064
        5.450000           7.669346           18.43738
        5.460000           8.397534           18.21625
        5.470000           9.147728           17.86399
        5.480000           9.889610           17.36030
        5.490000           10.58182           16.69313
        5.500000           11.17451           15.86481
        5.510000           11.61567           14.89728
        5.520000           11.86093           13.83370
        5.530000           11.88392           12.73423
        5.540000           11.68328           11.66591
        5.550000           11.28312           10.69015
        5.560000           10.72650           9.852171
        5.570000           10.06517           9.176131
        5.580000           9.349621           8.666168
        5.590000           8.622374           8.311476
        5.600000           7.914947           8.092356
        5.610000           7.248079           7.985687
        5.620000           6.633470           7.968602
        5.630000           6.076125           8.020599
        5.640000           5.576513           8.124400
        5.650000           5.132307           8.266052
        5.660000           4.739652           8.434642
        5.670000           4.394017           8.621838
        5.680000           4.090724           8.821381
        5.690000           3.825273           9.028670
        5.700000           3.593507           9.240380
        5.710000           3.391685           9.454157
        5.720000           3.216513           9.668369
        5.730000           3.065116           9.881947
        5.740000           2.935023           10.09422
        5.750000           2.824127           10.30484
        5.760000           2.730649           10.51365
        5.770000           2.653111           10.72069
        5.780000           2.590292           10.92609
        5.790000           2.541208           11.13010
        5.800000           2.505094           11.33300
        5.810000           2.481382           11.53514
        5.820000           2.469687           11.73688
        5.830000           2.469801           11.93862
        5.840000           2.481691           12.14074
        5.850000           2.505485           12.34363
        5.860000           2.541493           12.54767
        5.870000           2.590199           12.75321
        5.880000           2.652280           12.96058
        5.890000           2.728626           13.17005
        5.900000           2.820341           13.38179
        5.910000           2.928792           13.59594
        5.920000           3.055615           13.81239
        5.930000           3.202770           14.03094
        5.940000           3.372555           14.25106
        5.950000           3.567669           14.47192
        5.960000           3.791191           14.69216
        5.970000           4.046678           14.90980
        5.980000           4.338097           15.12202
        5.990000           4.669809           15.32487
        6.000000           5.046447           15.51295
        6.010000           5.472675           15.67896
        6.020000           5.952762           15.81328
        6.030000           6.489894           15.90347
        6.040000           7.085124           15.93385
        6.050000           7.735847           15.88539
        6.060000           8.433823           15.73618
        6.070000           9.162881           15.46291
        6.080000           9.896732           15.04368
        6.090000           10.59794           14.46276
        6.100000           11.21920           13.71650
        6.110000           11.70828           12.81918
        6.120000           12.01667           11.80630
        6.130000           12.11022           10.73265
        6.140000           11.97785           9.664268
        6.150000           11.63466           8.666058
        6.160000           11.11775           7.790153
        6.170000           10.47688           7.068679
        6.180000           9.763988           6.512761
        6.190000           9.025003           6.116395
        6.200000           8.295593           5.862489
        6.210000           7.600300           5.728667
        6.220000           6.953865           5.691659
        6.230000           6.363456           5.729929
        6.240000           5.830948           5.824969
        6.250000           5.354835           5.961623
        6.260000           4.931659           6.127896
        6.270000           4.557020           6.314551
        6.280000           4.226193           6.514616
        6.290000           3.934536           6.722908
        6.300000           3.677689           6.935660
        6.310000           3.451686           7.150179
        6.320000           3.253013           7.364554
        6.330000           3.078554           7.577518
        6.340000           2.925615           7.788231
        6.350000           2.791861           7.996219
        6.360000           2.675292           8.201226
        6.370000           2.574204           8.403194
        6.380000           2.487149           8.602197
        6.390000           2.412911           8.798402
        6.400000           2.350477           8.992050
        6.410000           2.299015           9.183426
        6.420000           2.257851           9.372852
        6.430000           2.226464           9.560681
        6.440000           2.204463           9.747275
        6.450000           2.191585           9.933012
        6.460000           2.187692           10.11827
        6.470000           2.192754           10.30344
        6.480000           2.206866           10.48890
        6.490000           2.230238           10.67502
        6.500000           2.263208           10.86218
        6.510000           2.306239           11.05073
        6.520000           2.359943           11.24098
        6.530000           2.425081           11.43326
        6.540000           2.502595           11.62781
        6.550000           2.593615           11.82482
        6.560000           2.699493           12.02439
        6.570000           2.821831           12.22651
        6.580000           2.962506           12.43100
        6.590000           3.123718           12.63747
        6.600000           3.308023           12.84520
        6.610000           3.518364           13.05309
        6.620000           3.758102           13.25948
        6.630000           4.031037           13.46196
        6.640000           4.341380           13.65718
        6.650000           4.693675           13.84049
        6.660000           5.092638           14.00562
        6.670000           5.542835           14.14416
        6.680000           6.048166           14.24516
        6.690000           6.610918           14.29463
        6.700000           7.230644           14.27524
        6.710000           7.902316           14.16644
        6.720000           8.614170           13.94534
        6.730000           9.345403           13.58880
        6.740000           10.06439           13.07720
        6.750000           10.72860           12.39979
        6.760000           11.28747           11.56085
        6.770000           11.68929           10.58472
        6.780000           11.89114           9.516808
        6.790000           11.86915           8.418581
        6.800000           11.62490           7.357100
        6.810000           11.18491           6.392335
        6.820000           10.59378           5.567355
        6.830000           9.903479           4.903866
        6.840000           9.163837           4.404033
        6.850000           8.416119           4.055687
        6.860000           7.690545           3.838499
        6.870000           7.006670           3.729182
        6.880000           6.375263           3.705012
        6.890000           5.800652           3.745770
        6.900000           5.282820           3.834504
        6.910000           4.819135           3.957562
        6.920000           4.405532           4.104277
        6.930000           4.037339           4.266495
        6.940000           3.709772           4.438092
        6.950000           3.418244           4.614547
        6.960000           3.158502           4.792555
        6.970000           2.926712           4.969759
        6.980000           2.719461           5.144496
        6.990000           2.533743           5.315631
        7.000000           2.366930           5.482415
        7.010000           2.216733           5.644381
        7.020000           2.081162           5.801274
        7.030000           1.958490           5.952989
        7.039999           1.847219           6.099523
        7.050000           1.746043           6.240949
        7.059999           1.653830           6.377401
        7.070000           1.569594           6.509038
        7.079999           1.492473           6.636041
        7.090000           1.421715           6.758610
        7.099999           1.356660           6.876941
        7.110000           1.296729           6.991241
        7.119999           1.241411           7.101707
        7.130000           1.190259           7.208532
        7.140000           1.142869           7.311914
        7.150000           1.098899           7.412014
        7.160000           1.058030           7.509018
        7.170000           1.019988           7.603083
        7.180000           0.984521           7.694371
        7.190000           0.951408           7.783024
        7.200000           0.920452           7.869184
        7.210000           0.891472           7.952977
        7.220000           0.864310           8.034533
        7.230000           0.838822           8.113961
        7.240000           0.814875           8.191377
        7.250000           0.792353           8.266880
        7.260000           0.771149           8.340572
        7.270000           0.751165           8.412539
        7.280000           0.732315           8.482872
        7.290000           0.714516           8.551646
        7.300000           0.697698           8.618943
        7.310000           0.681791           8.684836
        7.320000           0.666736           8.749389
        7.330000           0.652477           8.812670
        7.340000           0.638962           8.874733
        7.350000           0.626143           8.935645
        7.360000           0.613978           8.995453
        7.370000           0.602425           9.054214
        7.380000           0.591449           9.111969
        7.390000           0.581016           9.168775
        7.400000           0.571094           9.224670
        7.410000           0.561654           9.279694
        7.420000           0.552668           9.333884
        7.430000           0.544112           9.387285
        7.440000           0.535963           9.439929
        7.450000           0.528199           9.491849
        7.460000           0.520800           9.543079
        7.470000           0.513746           9.593649
        7.480000           0.507022           9.643591
        7.489999           0.500610           9.692927
        7.500000           0.494495           9.741695
        7.510000           0.488664           9.789908
        7.520000           0.483103           9.837594
        7.530000           0.477799           9.884783
        7.540000           0.472741           9.931489
        7.550000           0.467917           9.977740
        7.560000           0.463320           10.02355
        7.570000           0.458936           10.06895
        7.580000           0.454760           10.11394
        7.590000           0.450781           10.15856
        7.600000           0.446992           10.20282
        7.610000           0.443385           10.24673
        7.620000           0.439954           10.29031
        7.630000           0.436692           10.33358
        7.640000           0.433592           10.37655
        7.650000           0.430649           10.41924
        7.660000           0.427858           10.46166
        7.670000           0.425212           10.50383
        7.680000           0.422708           10.54576
        7.690000           0.420340           10.58745
        7.700000           0.418104           10.62894
        7.710000           0.415997           10.67021
        7.720000           0.414014           10.71130
        7.730000           0.412152           10.75221
        7.740000           0.410407           10.79294
        7.750000           0.408776           10.83352
        7.760000           0.407255           10.87395
        7.770000           0.405843           10.91425
        7.780000           0.404537           10.95441
        7.789999           0.403333           10.99447
        7.800000           0.402230           11.03441
        7.809999           0.401225           11.07425
        7.820000           0.400317           11.11401
        7.829999           0.399503           11.15368
        7.840000           0.398781           11.19329
        7.849999           0.398150           11.23283
        7.860000           0.397608           11.27232
        7.870000           0.397153           11.31177
        7.880000           0.396785           11.35118
        7.890000           0.396502           11.39056
        7.900000           0.396303           11.42992
        7.910000           0.396187           11.46926
        7.920000           0.396152           11.50861
        7.930000           0.396198           11.54796
        7.940000           0.396324           11.58731
        7.950000           0.396530           11.62669
        7.960000           0.396815           11.66609
        7.970000           0.397177           11.70553
        7.980000           0.397618           11.74501
        7.990000           0.398136           11.78454
        8.000000           0.398731           11.82412
        8.010000           0.399402           11.86377
        8.020000           0.400151           11.90349
        8.030000           0.400976           11.94329
        8.040000           0.401877           11.98318
        8.050000           0.402856           12.02315
        8.059999           0.403911           12.06323
        8.070000           0.405043           12.10342
        8.080000           0.406252           12.14372
        8.090000           0.407540           12.18415
        8.099999           0.408905           12.22471
        8.110000           0.410349           12.26541
        8.120000           0.411873           12.30625
        8.130000           0.413476           12.34725
        8.139999           0.415160           12.38840
        8.150000           0.416926           12.42973
        8.160000           0.418774           12.47124
        8.170000           0.420705           12.51293
        8.179999           0.422722           12.55481
        8.190000           0.424824           12.59690
        8.200000           0.427012           12.63920
        8.209999           0.429290           12.68171
        8.219999           0.431657           12.72445
        8.230000           0.434116           12.76744
        8.240001           0.436668           12.81066
        8.250000           0.439315           12.85414
        8.260000           0.442058           12.89787
        8.270000           0.444901           12.94188
        8.280000           0.447844           12.98618
        8.290000           0.450891           13.03076
        8.300000           0.454043           13.07565
        8.310000           0.457304           13.12084
        8.320000           0.460675           13.16637
        8.330000           0.464160           13.21222
        8.340000           0.467761           13.25841
        8.350000           0.471482           13.30497
        8.360000           0.475327           13.35189
        8.370000           0.479298           13.39918
        8.380000           0.483400           13.44687
        8.390000           0.487636           13.49496
        8.400000           0.492010           13.54347
        8.410000           0.496527           13.59241
        8.420000           0.501192           13.64178
        8.430000           0.506009           13.69162
        8.440000           0.510984           13.74193
        8.450000           0.516122           13.79272
        8.460000           0.521428           13.84401
        8.469999           0.526909           13.89583
        8.480000           0.532572           13.94817
        8.490000           0.538423           14.00108
        8.500000           0.544470           14.05454
        8.509999           0.550719           14.10861
        8.520000           0.557180           14.16326
        8.530000           0.563861           14.21855
        8.540000           0.570770           14.27449
        8.549999           0.577919           14.33109
        8.559999           0.585316           14.38839
        8.570000           0.592974           14.44640
        8.580000           0.600903           14.50514
        8.589999           0.609116           14.56465
        8.600000           0.617628           14.62496
        8.610001           0.626450           14.68607
        8.620000           0.635599           14.74803
        8.630000           0.645090           14.81086
        8.640000           0.654941           14.87460
        8.650001           0.665171           14.93928
        8.660000           0.675799           15.00492
        8.670000           0.686845           15.07158
        8.680000           0.698334           15.13928
        8.690001           0.710288           15.20807
        8.700000           0.722735           15.27797
        8.710000           0.735702           15.34905
        8.720000           0.749220           15.42134
        8.730000           0.763322           15.49489
        8.740000           0.778043           15.56975
        8.750000           0.793420           15.64598
        8.760000           0.809496           15.72363
        8.770000           0.826315           15.80275
        8.780000           0.843927           15.88342
        8.790000           0.862383           15.96569
        8.800000           0.881742           16.04964
        8.809999           0.902067           16.13534
        8.820000           0.923426           16.22286
        8.830000           0.945893           16.31229
        8.840000           0.969552           16.40371
        8.849999           0.994492           16.49723
        8.860000           1.020811           16.59292
        8.870000           1.048620           16.69090
        8.880000           1.078039           16.79128
        8.889999           1.109199           16.89417
        8.900000           1.142247           16.99969
        8.910000           1.177346           17.10798
        8.919999           1.214678           17.21919
        8.929999           1.254443           17.33343
        8.940000           1.296867           17.45088
        8.950000           1.342199           17.57170
        8.959999           1.390721           17.69606
        8.970000           1.442754           17.82415
        8.980000           1.498644           17.95613
        8.990000           1.558797           18.09223
        9.000000           1.623663           18.23264
        9.010000           1.693759           18.37756
        9.020000           1.769667           18.52722
        9.030000           1.852049           18.68182
        9.040000           1.941664           18.84156
        9.050000           2.039376           19.00667
        9.060000           2.146178           19.17728
        9.070000           2.263207           19.35355
        9.080000           2.391771           19.53557
        9.090000           2.533373           19.72335
        9.100000           2.689748           19.91680
        9.110000           2.862890           20.11567
        9.120000           3.055095           20.31952
        9.130000           3.268996           20.52763
        9.140000           3.507604           20.73886
        9.150000           3.774339           20.95156
        9.160000           4.073045           21.16342
        9.170000           4.407977           21.37115
        9.179999           4.783737           21.57025
        9.190000           5.205117           21.75461
        9.200000           5.676801           21.91614
        9.210000           6.202865           22.04416
        9.219999           6.785975           22.12510
        9.230000           7.426157           22.14202
        9.240000           8.119126           22.07474
        9.250000           8.854163           21.90058
        9.259999           9.611773           21.59626
        9.270000           10.36179           21.14147
        9.280000           11.06300           20.52403
        9.290000           11.66565           19.74607
        9.299999           12.11772           18.82926
        9.309999           12.37467           17.81658
        9.320000           12.40986           16.76800
        9.330000           12.22161           15.75052
        9.340000           11.83376           14.82591
        9.350000           11.28921           14.03958
        9.360001           10.63968           13.41600
        9.370000           9.935782           12.95959
        9.380000           9.220137           12.65968
        9.390000           8.524455           12.49674
        9.400001           7.869633           12.44767
        9.410000           7.267507           12.48967
        9.420000           6.723180           12.60221
        9.430000           6.237205           12.76804
        9.440000           5.807319           12.97321
        9.450000           5.429718           13.20683
        9.460000           5.099925           13.46058
        9.470000           4.813305           13.72825
        9.480000           4.565409           14.00529
        9.490000           4.352131           14.28841
        9.500000           4.169786           14.57534
        9.510000           4.015139           14.86450
        9.520000           3.885387           15.15489
        9.530000           3.778133           15.44594
        9.540000           3.691351           15.73736
        9.550000           3.623362           16.02912
        9.559999           3.572785           16.32133
        9.570000           3.538510           16.61425
        9.580000           3.519685           16.90822
        9.590000           3.515685           17.20367
        9.599999           3.526095           17.50104
        9.610000           3.550709           17.80087
        9.620000           3.589511           18.10365
        9.629999           3.642679           18.40995
        9.639999           3.710592           18.72031
        9.650000           3.793823           19.03529
        9.660000           3.893164           19.35541
        9.669999           4.009635           19.68118
        9.679999           4.144507           20.01306
        9.690000           4.299325           20.35147
        9.700000           4.475961           20.69670
        9.710000           4.676587           21.04891
        9.720000           4.903811           21.40804
        9.730000           5.160659           21.77386
        9.740000           5.450648           22.14566
        9.750000           5.777833           22.52233
        9.760000           6.146842           22.90203
        9.770000           6.562906           23.28207
        9.780000           7.031836           23.65853
        9.790000           7.559928           24.02597
        9.800000           8.153766           24.37695
        9.810000           8.819837           24.70148
        9.820000           9.563900           24.98652
        9.830000           10.38994           25.21541
        9.840000           11.29873           25.36770
        9.850000           12.28585           25.41940
        9.860000           13.33937           25.34412
        9.870000           14.43770           25.11588
        9.880000           15.54828           24.71317
        9.889999           16.62867           24.12459
        9.900000           17.63097           23.35426
        9.910000           18.50970           22.42468
        9.920000           19.23134           21.37441
        9.929999           19.78157           20.25001
        9.940000           20.16637           19.09437
        9.950000           20.40571           17.93648
        9.960000           20.52207           16.78718
        9.969999           20.52907           15.64290
        9.980000           20.42486           14.49551
        9.990000           20.19298           13.34411
        10.00000           19.81052           12.20377
        10.01000           19.25999           11.10739
        10.02000           18.53994           10.09983
        10.03000           17.66965           9.226779
        10.04000           16.68637           8.523624
        10.05000           15.63709           8.008588
        10.06000           14.56907           7.681799
        10.07000           13.52298           7.529102
        10.08000           12.52885           7.527533
        10.09000           11.60597           7.650738
        10.10000           10.76446           7.872859
        10.11000           10.00747           8.170741
        10.12000           9.333497           8.524940
        10.13000           8.738199           8.919830
        10.14000           8.215779           9.343259
        10.15000           7.759890           9.786035
        10.16000           7.364223           10.24139
        10.17000           7.022845           10.70445
        10.18000           6.730359           11.17183
        10.19000           6.481990           11.64124
        10.20000           6.273587           12.11125
        10.21000           6.101611           12.58111
        10.22000           5.963091           13.05048
        10.23000           5.855584           13.51942
        10.24000           5.777119           13.98824
        10.25000           5.726172           14.45742
        10.26000           5.701638           14.92762
        10.27000           5.702786           15.39957
        10.28000           5.729259           15.87410
        10.29000           5.781054           16.35208
        10.30000           5.858523           16.83437
        10.31000           5.962387           17.32188
        10.32000           6.093725           17.81549
        10.33000           6.254030           18.31606
        10.34000           6.445215           18.82434
        10.35000           6.669657           19.34101
        10.36000           6.930266           19.86661
        10.37000           7.230522           20.40142
        10.38000           7.574550           20.94545
        10.39000           7.967221           21.49828
        10.40000           8.414193           22.05893
        10.41000           8.922055           22.62560
        10.42000           9.498344           23.19547
        10.43000           10.15170           23.76435
        10.44000           10.89159           24.32606
        10.45000           11.72857           24.87206
        10.46000           12.67379           25.39059
        10.47000           13.73851           25.86588
        10.48000           14.93319           26.27721
        10.49000           16.26603           26.59801
        10.50000           17.74084           26.79527
        10.51000           19.35423           26.82964
        10.52000           21.09209           26.65664
        10.53000           22.92612           26.22974
        10.54000           24.81129           25.50546
        10.55000           26.68550           24.45028
        10.56000           28.47285           23.04777
        10.57000           30.09021           21.30413
        10.58000           31.45583           19.24986
        10.59000           32.49723           16.93786
        10.60000           33.15711           14.43896
        10.61000           33.39678           11.83722
        10.62000           33.19897           9.225259
        10.63000           32.57030           6.699135
        10.64000           31.54292           4.351454
        10.65000           30.17375           2.262959
        10.66000           28.53983           0.494026
        10.67000           26.72973          -0.921576
        10.68000           24.83276          -1.978367
        10.69000           22.92883          -2.695719
        10.70000           21.08167          -3.110699
        10.71000           19.33623          -3.269744
        10.72000           17.71984          -3.221403
        10.73000           16.24535          -3.011258
        10.74000           14.91500          -2.679123
        10.75000           13.72405          -2.258046
        10.76000           12.66364          -1.774418
        10.77000           11.72285          -1.248725
        10.78000           10.89014          -0.696486
        10.79000           10.15414          -0.129171
        10.80000           9.504358           0.444752
        10.81000           8.931096           1.019374
        10.82000           8.425756           1.590579
        10.83000           7.980765           2.155633
        10.84000           7.589537           2.712828
        10.85000           7.246382           3.261225
        10.86000           6.946420           3.800437
        10.87000           6.685480           4.330498
        10.88000           6.460042           4.851729
        10.89000           6.267145           5.364672
        10.90000           6.104338           5.870015
        10.91000           5.969619           6.368541
        10.92000           5.861394           6.861137
        10.93000           5.778448           7.348694
        10.94000           5.719910           7.832161
        10.95000           5.685250           8.312477
        10.96000           5.674248           8.790590
        10.97000           5.687007           9.267423
        10.98000           5.723963           9.743866
        10.99000           5.785874           10.22077
        11.00000           5.873852           10.69892
        11.01000           5.989401           11.17899
        11.02000           6.134432           11.66156
        11.03000           6.311318           12.14700
        11.04000           6.522944           12.63548
        11.05000           6.772765           13.12680
        11.06000           7.064873           13.62035
        11.07000           7.404074           14.11494
        11.08000           7.795952           14.60856
        11.09000           8.246900           15.09815
        11.10000           8.764179           15.57923
        11.11000           9.355845           16.04543
        11.12000           10.03061           16.48793
        11.13000           10.79751           16.89476
        11.14000           11.66525           17.24993
        11.15000           12.64125           17.53253
        11.16000           13.73003           17.71598
        11.17000           14.93048           17.76741
        11.18000           16.23319           17.64806
        11.19000           17.61613           17.31500
        11.20000           19.04071           16.72500
        11.21000           20.44880           15.84133
        11.22000           21.76278           14.64316
        11.23000           22.89080           13.13593
        11.24000           23.73798           11.35975
        11.25000           24.22282           9.391488
        11.26000           24.29405           7.337798
        11.27000           23.94258           5.319353
        11.28000           23.20370           3.450681
        11.29000           22.14860           1.821927
        11.30000           20.86884           0.488102
        11.31000           19.45909          -0.532246
        11.32000           18.00354          -1.250702
        11.33000           16.56828          -1.698926
        11.34000           15.19937          -1.918553
        11.35000           13.92490          -1.953299
        11.36000           12.75879          -1.843985
        11.37000           11.70482          -1.625983
        11.38000           10.76026          -1.328435
        11.39000           9.918555          -0.974518
        11.40000           9.171199          -0.582157
        11.41000           8.509044          -0.164935
        11.42000           7.923040           0.267052
        11.43000           7.404673           0.706415
        11.44000           6.946155           1.147853
        11.45000           6.540544           1.587643
        11.46000           6.181707           2.023248
        11.47000           5.864284           2.453007
        11.48000           5.583633           2.875919
        11.49000           5.335743           3.291459
        11.50000           5.117172           3.699455
        11.51000           4.924969           4.099989
        11.52000           4.756606           4.493363
        11.53000           4.609990           4.879907
        11.54000           4.483305           5.260140
        11.55000           4.375056           5.634616
        11.56000           4.284018           6.003929
        11.57000           4.209198           6.368693
        11.58000           4.149832           6.729545
        11.59000           4.105346           7.087120
        11.60000           4.075369           7.442056
        11.61000           4.059713           7.794976
        11.62000           4.058376           8.146504
        11.63000           4.071532           8.497224
        11.64000           4.099558           8.847699
        11.65000           4.143015           9.198462
        11.66000           4.202694           9.549973
        11.67000           4.279613           9.902638
        11.68000           4.375039           10.25675
        11.69000           4.490536           10.61249
        11.70000           4.627973           10.96983
        11.71000           4.789575           11.32853
        11.72000           4.977954           11.68800
        11.73000           5.196146           12.04723
        11.74000           5.447640           12.40460
        11.75000           5.736368           12.75773
        11.76000           6.066694           13.10318
        11.77000           6.443318           13.43616
        11.78000           6.871065           13.75015
        11.79000           7.354546           14.03641
        11.80000           7.897523           14.28349
        11.81000           8.502000           14.47686
        11.82000           9.166827           14.59861
        11.83000           9.885851           14.62774
        11.84000           10.64568           14.54130
        11.85000           11.42338           14.31683
        11.86000           12.18509           13.93658
        11.87000           12.88641           13.39311
        11.88000           13.47635           12.69543
        11.89000           13.90504           11.87328
        11.90000           14.13405           10.97700
        11.91000           14.14620           10.07069
        11.92000           13.95052           9.220999
        11.93000           13.57998           8.484704
        11.94000           13.08332           7.899866
        11.95000           12.51441           7.483136
        11.96000           11.92331           7.232495
        11.97000           11.35088           7.132905
        11.98000           10.82713           7.162300
        11.99000           10.37216           7.296314
        12.00000           9.998201           7.511292
        12.01000           9.712029           7.785706
        12.02000           9.516953           8.100513
        12.03000           9.414371           8.438807
        12.04000           9.404746           8.785102
        12.05000           9.488086           9.124443
        12.06000           9.663992           9.441444
        12.07000           9.931206           9.719415
        12.08000           10.28670           9.939600
        12.09000           10.72421           10.08076
        12.10000           11.23225           10.11943
        12.11000           11.79179           10.03121
        12.12000           12.37406           9.793531
        12.13000           12.93949           9.390198
        12.14000           13.43888           8.817290
        12.15000           13.81839           8.088979
        12.16000           14.02810           7.240766
        12.17000           14.03259           6.327502
        12.18000           13.81971           5.415272
        12.19000           13.40361           4.569189
        12.20000           12.82056           3.841580
        12.21000           12.11964           3.264792
        12.22000           11.35215           2.850165
        12.23000           10.56353           2.591915
        12.24000           9.788991           2.473147
        12.25000           9.052679           2.471698
        12.26000           8.368948           2.564489
        12.27000           7.744779           2.730158
        12.28000           7.181728           2.950373
        12.29000           6.678055           3.210146
        12.30000           6.230110           3.497650
        12.31000           5.833321           3.803808
        12.32000           5.482818           4.121795
        12.33000           5.173835           4.446584
        12.34000           4.901917           4.774548
        12.35000           4.663023           5.103127
        12.36000           4.453563           5.430568
        12.37000           4.270392           5.755717
        12.38000           4.110791           6.077882
        12.39000           3.972427           6.396697
        12.40000           3.853315           6.712040
        12.41000           3.751790           7.023979
        12.42000           3.666463           7.332694
        12.43000           3.596202           7.638476
        12.44000           3.540107           7.941680
        12.45000           3.497477           8.242696
        12.46000           3.467814           8.541957
        12.47000           3.450797           8.839905
        12.48000           3.446286           9.136993
        12.49000           3.454311           9.433677
        12.50000           3.475078           9.730393
        12.51000           3.508970           10.02756
        12.52000           3.556564           10.32557
        12.53000           3.618634           10.62477
        12.54000           3.696184           10.92541
        12.55000           3.790451           11.22770
        12.56000           3.902949           11.53166
        12.57000           4.035492           11.83720
        12.58000           4.190228           12.14394
        12.59000           4.369682           12.45121
        12.60000           4.576782           12.75791
        12.61000           4.814890           13.06236
        12.62000           5.087829           13.36212
        12.63000           5.399771           13.65371
        12.64000           5.755280           13.93233
        12.65000           6.159029           14.19150
        12.66000           6.615490           14.42255
        12.67000           7.128343           14.61414
        12.68000           7.699573           14.75188
        12.69000           8.328139           14.81801
        12.70000           9.008126           14.79159
        12.71000           9.726579           14.64962
        12.72000           10.46116           14.36923
        12.73000           11.17856           13.93182
        12.74000           11.83476           13.32855
        12.75000           12.37853           12.56648
        12.76000           12.75879           11.67322
        12.77000           12.93483           10.69706
        12.78000           12.88631           9.701163
        12.79000           12.61874           8.752373
        12.80000           12.16195           7.908755
        12.81000           11.56225           7.210314
        12.82000           10.87193           6.675738
        12.83000           10.13984           6.304756
        12.84000           9.405722           6.083666
        12.85000           8.698165           5.991488
        12.86000           8.035310           6.004914
        12.87000           7.426861           6.101580
        12.88000           6.876414           6.261803
        12.89000           6.383515           6.469218
        12.90000           5.945312           6.710727
        12.91000           5.557656           6.976162
        12.92000           5.215895           7.257787
        12.93000           4.915332           7.549845
        12.94000           4.651491           7.848117
        12.95000           4.420266           8.149573
        12.96000           4.217979           8.452078
        12.97000           4.041374           8.754172
        12.98000           3.887618           9.054924
        12.99000           3.754249           9.353780
        13.00000           3.639184           9.650399
        13.01000           3.540608           9.944723
        13.02000           3.457005           10.23682
        13.03000           3.387086           10.52686
        13.04000           3.329784           10.81510
        13.05000           3.284218           11.10187
        13.06000           3.249682           11.38750
        13.07000           3.225615           11.67238
        13.08000           3.211606           11.95694
        13.09000           3.207369           12.24158
        13.10000           3.212742           12.52673
        13.11000           3.227687           12.81284
        13.12000           3.252283           13.10034
        13.13000           3.286731           13.38966
        13.14000           3.331353           13.68124
        13.15000           3.386606           13.97550
        13.16000           3.453086           14.27284
        13.17000           3.531543           14.57366
        13.18000           3.622899           14.87828
        13.19000           3.728263           15.18701
        13.20000           3.848964           15.50004
        13.21000           3.986568           15.81753
        13.22000           4.142913           16.13943
        13.23000           4.320153           16.46553
        13.24000           4.520792           16.79534
        13.25000           4.747710           17.12802
        13.26000           5.004217           17.46225
        13.27000           5.294055           17.79602
        13.28000           5.621403           18.12651
        13.29000           5.990840           18.44971
        13.30000           6.407178           18.76011
        13.31000           6.875256           19.05031
        13.32000           7.399469           19.31050
        13.33000           7.983037           19.52806
        13.34000           8.626925           19.68703
        13.35000           9.328340           19.76821
        13.36000           10.07845           19.74956
        13.37000           10.86040           19.60791
        13.38000           11.64709           19.32200
        13.39000           12.40022           18.87729
        13.40000           13.07209           18.27201
        13.41000           13.61087           17.52292
        13.42000           13.96968           16.66810
        13.43000           14.11718           15.76425
        13.44000           14.04592           14.87809
        13.45000           13.77454           14.07384
        13.46000           13.34301           13.40187
        13.47000           12.80289           12.89205
        13.48000           12.20701           12.55346
        13.49000           11.60174           12.37861
        13.50000           11.02309           12.34949
        13.51000           10.49633           12.44327
        13.52000           10.03739           12.63642
        13.53000           9.655217           12.90707
        13.54000           9.354047           13.23615
        13.55000           9.135330           13.60745
        13.56000           8.999107           14.00728
        13.57000           8.944964           14.42383
        13.58000           8.972627           14.84642
        13.59000           9.082184           15.26466
        13.60000           9.274065           15.66774
        13.61000           9.548758           16.04355
        13.62000           9.906181           16.37803
        13.63000           10.34451           16.65443
        13.64000           10.85903           16.85322
        13.65000           11.43961           16.95211
        13.66000           12.06907           16.92755
        13.67000           12.72014           16.75731
        13.68000           13.35506           16.42491
        13.69000           13.92582           15.92570
        13.70000           14.37945           15.27235
        13.71000           14.66576           14.49911
        13.72000           14.74840           13.65945
        13.73000           14.61360           12.81944
        13.74000           14.27384           12.04466
        13.75000           13.76446           11.38924
        13.76000           13.13420           10.88723
        13.77000           12.43515           10.55190
        13.78000           11.71363           10.37872
        13.79000           11.00645           10.35171
        13.80000           10.33884           10.44913
        13.81000           9.726632           10.64804
        13.82000           9.177545           10.92716
        13.83000           8.694284           11.26805
        13.84000           8.275800           11.65580
        13.85000           7.919363           12.07849
        13.86000           7.621086           12.52724
        13.87000           7.377057           12.99521
        13.88000           7.183371           13.47769
        13.89000           7.036669           13.97107
        13.90000           6.934048           14.47317
        13.91000           6.873294           14.98236
        13.92000           6.852804           15.49762
        13.93000           6.871631           16.01858
        13.94000           6.929481           16.54478
        13.95000           7.026744           17.07628
        13.96000           7.164456           17.61281
        13.97000           7.344414           18.15437
        13.98000           7.569065           18.70038
        13.99000           7.841765           19.25029
        14.00000           8.166542           19.80268
        14.01000           8.548512           20.35572
        14.02000           8.993488           20.90622
        14.03000           9.508497           21.44998
        14.04000           10.10117           21.98059
        14.05000           10.78025           22.48957
        14.06000           11.55453           22.96494
        14.07000           12.43313           23.39102
        14.08000           13.42348           23.74690
        14.09000           14.53090           24.00602
        14.10000           15.75490           24.13508
        14.11000           17.08731           24.09450
        14.12000           18.50653           23.83966
        14.13000           19.97472           23.32469
        14.14000           21.43226           22.50957
        14.15000           22.79883           21.36957
        14.16000           23.97632           19.90825
        14.17000           24.86258           18.16624
        14.18000           25.36855           16.22664
        14.19000           25.43951           14.20523
        14.20000           25.06865           12.23425
        14.21000           24.29902           10.43561
        14.22000           23.21256           8.902570
        14.23000           21.90980           7.686661
        14.24000           20.49149           6.800606
        14.25000           19.04309           6.225748
        14.26000           17.62993           5.925129
        14.27000           16.29497           5.853531
        14.28000           15.06359           5.965619
        14.29000           13.94730           6.220171
        14.30000           12.94761           6.582347
        14.31000           12.06080           7.023711
        14.32000           11.27924           7.522170
        14.33000           10.59430           8.060566
        14.34000           9.996510           8.626334
        14.35000           9.477094           9.209934
        14.36000           9.027569           9.804814
        14.37000           8.640601           10.40604
        14.38000           8.309461           11.01059
        14.39000           8.028519           11.61619
        14.40000           7.792762           12.22178
        14.41000           7.598088           12.82658
        14.42000           7.440936           13.43065
        14.43000           7.318462           14.03401
        14.44000           7.228278           14.63732
        14.45000           7.168571           15.24105
        14.46000           7.137918           15.84620
        14.47000           7.135350           16.45347
        14.48000           7.160279           17.06403
        14.49000           7.212488           17.67870
        14.50000           7.292159           18.29873
        14.51000           7.399790           18.92497
        14.52000           7.536327           19.55869
        14.53000           7.703037           20.20070
        14.54000           7.901699           20.85216
        14.55000           8.134440           21.51377
        14.56000           8.404026           22.18648
        14.57000           8.713631           22.87064
        14.58000           9.067228           23.56679
        14.59000           9.469291           24.27464
        14.60000           9.925310           24.99385
        14.61000           10.44137           25.72296
        14.62000           11.02483           26.46000
        14.63000           11.68378           27.20142
        14.64000           12.42734           27.94197
        14.65000           13.26591           28.67455
        14.66000           14.21018           29.38863
        14.67000           15.27171           30.07042
        14.68000           16.46098           30.70098
        14.69000           17.78741           31.25608
        14.70000           19.25585           31.70457
        14.71000           20.86534           32.00872
        14.72000           22.60344           32.12447
        14.73000           24.44379           32.00444
        14.74000           26.33977           31.60324
        14.75000           28.22464           30.88600
        14.76000           30.01156           29.84013
        14.77000           31.60502           28.48542
        14.78000           32.91493           26.88159
        14.79000           33.87841           25.12278
        14.80000           34.47478           23.32424
        14.81000           34.73235           21.59649
        14.82000           34.71922           20.02460
        14.83000           34.52418           18.65169
        14.84000           34.23397           17.47967
        14.85000           33.91488           16.47753
        14.86000           33.60352           15.59937
        14.87000           33.30686           14.80050
        14.88000           33.01120           14.05219
        14.89000           32.69562           13.34706
        14.90000           32.34682           12.69762
        14.91000           31.96839           12.12534
        14.92000           31.58300           11.64815
        14.93000           31.22546           11.26861
        14.94000           30.93209           10.96962
        14.95000           30.72889           10.71597
        14.96000           30.62386           10.46232
        14.97000           30.60358           10.16302
        14.98000           30.63575           9.782922
        14.99000           30.67645           9.304997
        15.00000           30.68098           8.733829
        15.01000           30.61502           8.091916
        15.02000           30.46129           7.409824
        15.03000           30.21938           6.715350
        15.04000           29.89777           6.024381
        15.05000           29.50347           5.340726
        15.06000           29.03312           4.661564
        15.07000           28.47174           3.988676
        15.08000           27.79774           3.336620
        15.09000           26.99438           2.736703
        15.10000           26.05917           2.231521
        15.11000           25.01023           1.865533
        15.12000           23.88290           1.673437
        15.13000           22.72340           1.673616
        15.14000           21.57816           1.866621
        15.15000           20.48807           2.238609
        15.16000           19.48330           2.767114
        15.17000           18.58420           3.425911
        15.18000           17.80160           4.189562
        15.19000           17.14023           5.034943
        15.20000           16.60007           5.943131
        15.21000           16.17909           6.898424
        15.22000           15.87408           7.889130
        15.23000           15.68211           8.905755
        15.24000           15.60090           9.941574
        15.25000           15.62943           10.99069
        15.26000           15.76816           12.04876
        15.27000           16.01910           13.11101
        15.28000           16.38617           14.17308
        15.29000           16.87485           15.22896
        15.30000           17.49262           16.27171
        15.31000           18.24819           17.29128
        15.32000           19.15194           18.27496
        15.33000           20.21435           19.20493
        15.34000           21.44611           20.05840
        15.35000           22.85498           20.80526
        15.36000           24.44492           21.40821
        15.37000           26.21103           21.82175
        15.38000           28.13556           21.99385
        15.39000           30.18404           21.86951
        15.40000           32.29893           21.39738
        15.41000           34.40081           20.53942
        15.42000           36.38972           19.28342
        15.43000           38.15876           17.65199
        15.44000           39.60829           15.70815
        15.45000           40.66609           13.54703
        15.46000           41.29759           11.28327
        15.47000           41.50901           9.029716
        15.48000           41.33902           6.885686
        15.49000           40.84782           4.927280
        15.50000           40.10848           3.209258
        15.51000           39.20090           1.763078
        15.52000           38.20860           0.598260
        15.53000           37.21156          -0.300896
        15.54000           36.27949          -0.973000
        15.55000           35.46217          -1.476015
        15.56000           34.78484          -1.877955
        15.57000           34.24524          -2.247061
        15.58000           33.81708          -2.640596
        15.59000           33.45674          -3.096546
        15.60000           33.11470          -3.628515
        15.61000           32.74726          -4.227973
        15.62000           32.32630          -4.871669
        15.63000           31.84137          -5.534292
        15.64000           31.29524          -6.198059
        15.65000           30.69297          -6.857862
        15.66000           30.03271          -7.516762
        15.67000           29.30034          -8.177583
        15.68000           28.47337          -8.832025
        15.69000           27.52919          -9.455912
        15.70000           26.45733          -10.01020
        15.71000           25.26565          -10.45049
        15.72000           23.98236          -10.73760
        15.73000           22.64836          -10.84710
        15.74000           21.30949          -10.77230
        15.75000           20.00758          -10.52260
        15.76000           18.77470          -10.11814
        15.77000           17.63309          -9.584582
        15.78000           16.59440          -8.948051
        15.79000           15.66330          -8.232961
        15.80000           14.83848          -7.459726
        15.81000           14.11591          -6.645304
        15.82000           13.48930          -5.802433
        15.83000           12.95219          -4.941113
        15.84000           12.49779          -4.068129
        15.85000           12.12015          -3.188699
        15.86000           11.81382          -2.305845
        15.87000           11.57442          -1.421908
        15.88000           11.39835          -0.537748
        15.89000           11.28305           0.345856
        15.90000           11.22681           1.229135
        15.91000           11.22891           2.112007
        15.92000           11.28956           2.995075
        15.93000           11.40986           3.878313
        15.94000           11.59194           4.762090
        15.95000           11.83887           5.645830
        15.96000           12.15485           6.528966
        15.97000           12.54502           7.409552
        15.98000           13.01588           8.285073
        15.99000           13.57474           9.150950
        16.00000           14.23031           10.00110
        16.01000           14.99178           10.82625
        16.02000           15.86924           11.61420
        16.03000           16.87204           12.34795
        16.04000           18.00873           13.00566
        16.05000           19.28395           13.55907
        16.06000           20.69733           13.97379
        16.07000           22.23838           14.20928
        16.08000           23.88429           14.22148
        16.09000           25.59405           13.96721
        16.10000           27.30819           13.41154
        16.11000           28.94826           12.53789
        16.12000           30.42465           11.35820
        16.13000           31.65038           9.918935
        16.14000           32.55676           8.301804
        16.15000           33.11088           6.611520
        16.16000           33.32373           4.959262
        16.17000           33.24871           3.439328
        16.18000           32.96894           2.114112
        16.19000           32.57826           1.004199
        16.20000           32.16267           0.092169
        16.21000           31.78555          -0.668915
        16.22000           31.48052          -1.340420
        16.23000           31.25017          -1.984623
        16.24000           31.07166          -2.651099
        16.25000           30.90637          -3.368825
        16.26000           30.71294          -4.142561
        16.27000           30.45912          -4.958206
        16.28000           30.12906          -5.792044
        16.29000           29.72221          -6.623610
        16.30000           29.24586          -7.442572
        16.31000           28.70407          -8.250254
        16.32000           28.09060          -9.051810
        16.33000           27.38715          -9.846985
        16.34000           26.57083          -10.62064
        16.35000           25.62397          -11.34164
        16.36000           24.54525          -11.96735
        16.37000           23.35288          -12.45518
        16.38000           22.08303          -12.77256
        16.39000           20.78027          -12.90401
        16.40000           19.48995          -12.85142
        16.41000           18.24963          -12.63039
        16.42000           17.08742          -12.26476
        16.43000           16.02013          -11.78108
        16.44000           15.05645          -11.20537
        16.45000           14.19782          -10.56034
        16.46000           13.44190          -9.865143
        16.47000           12.78378          -9.135098
        16.48000           12.21710          -8.381671
        16.49000           11.73568          -7.613846
        16.50000           11.33334          -6.837776
        16.51000           11.00489          -6.058283
        16.52000           10.74575          -5.278340
        16.53000           10.55252          -4.500460
        16.54000           10.42264          -3.726027
        16.55000           10.35467          -2.956589
        16.56000           10.34811          -2.193111
        16.57000           10.40349          -1.437246
        16.58000           10.52230          -0.690574
        16.59000           10.70692           0.044079
        16.60000           10.96064           0.763306
        16.61000           11.28733           1.461750
        16.62000           11.69144           2.132550
        16.63000           12.17713           2.765950
        16.64000           12.74811           3.349609
        16.65000           13.40584           3.867353
        16.66000           14.14880           4.299809
        16.67000           14.96951           4.624165
        16.68000           15.85327           4.816270
        16.69000           16.77502           4.853171
        16.70000           17.69962           4.717999
        16.71000           18.58236           4.405748
        16.72000           19.37544           3.928440
        16.73000           20.03576           3.317840
        16.74000           20.53609           2.621639
        16.75000           20.87179           1.894876
        16.76000           21.06255           1.186255
        16.77000           21.14552           0.527472
        16.78000           21.16385          -0.073694
        16.79000           21.15399          -0.631513
        16.80000           21.13579          -1.176030
        16.81000           21.10742          -1.741829
        16.82000           21.04580          -2.357231
        16.83000           20.91248          -3.033500
        16.84000           20.66422          -3.758853
        16.85000           20.26553          -4.498827
        16.86000           19.70016          -5.202559
        16.87000           18.97595          -5.815776
        16.88000           18.12327          -6.292514
        16.89000           17.18587          -6.604321
        16.90000           16.21172          -6.741971
        16.91000           15.24342          -6.712862
        16.92000           14.31468          -6.535258
        16.93000           13.44791          -6.232571
        16.94000           12.65650          -5.829175
        16.95000           11.94583          -5.347299
        16.96000           11.31657          -4.806208
        16.97000           10.76571          -4.221243
        16.98000           10.28884          -3.604720
        16.99000           9.880451          -2.965601
        17.00000           9.535211          -2.310832
        17.01000           9.247841          -1.644994
        17.02000           9.013780          -0.971582
        17.03000           8.828920          -0.292518
        17.04000           8.689950           0.390729
        17.05000           8.594119           1.077778
        17.06000           8.539401           1.768281
        17.07000           8.524352           2.462693
        17.08000           8.548155           3.161257
        17.09000           8.610594           3.864824
        17.10000           8.712020           4.573883
        17.11000           8.853436           5.289390
        17.12000           9.036374           6.011786
        17.13000           9.263127           6.741858
        17.14000           9.536532           7.479686
        17.15000           9.860334           8.225535
        17.16000           10.23886           8.978704
        17.17000           10.67753           9.738331
        17.18000           11.18237           10.50219
        17.19000           11.76063           11.26736
        17.20000           12.42023           12.02897
        17.21000           13.16974           12.78013
        17.22000           14.01862           13.51161
        17.23000           14.97574           14.21047
        17.24000           16.04970           14.86022
        17.25000           17.24619           15.43940
        17.26000           18.56764           15.92224
        17.27000           20.00923           16.27844
        17.28000           21.55807           16.47551
        17.29000           23.18924           16.48166
        17.30000           24.86708           16.27098
        17.31000           26.54529           15.82894
        17.32000           28.17459           15.15665
        17.33000           29.70836           14.27215
        17.34000           31.11222           13.20554
        17.35000           32.36544           11.99229
        17.36000           33.46067           10.66427
        17.37000           34.39660           9.247602
        17.38000           35.17432           7.762038
        17.39000           35.79462           6.225884
        17.40000           36.26033           4.655472
        17.41000           36.57684           3.065504
        17.42000           36.75080           1.464492
        17.43000           36.78550          -0.143275
        17.44000           36.67775          -1.756057
        17.45000           36.41833          -3.367400
        17.46000           35.99561          -4.964984
        17.47000           35.40017          -6.528893
        17.48000           34.62608          -8.035882
        17.49000           33.67160          -9.458479
        17.50000           32.53868          -10.76606
        17.51000           31.23732          -11.92245
        17.52000           29.78859          -12.89012
        17.53000           28.22877          -13.63515
        17.54000           26.60512          -14.13594
        17.55000           24.97127          -14.38713
        17.56000           23.37706          -14.40038
        17.57000           21.86426          -14.20019
        17.58000           20.46271          -13.81855
        17.59000           19.18976          -13.28920
        17.60000           18.05385          -12.64441
        17.61000           17.05543          -11.91202
        17.62000           16.19103          -11.11554
        17.63000           15.45403          -10.27322
        17.64000           14.83735          -9.399650
        17.65000           14.33348          -8.505373
        17.66000           13.93601          -7.598778
        17.67000           13.63927          -6.685639
        17.68000           13.43917          -5.770924
        17.69000           13.33284          -4.858145
        17.70000           13.31896          -3.951059
        17.71000           13.39757          -3.052978
        17.72000           13.57006          -2.168414
        17.73000           13.83908          -1.302433
        17.74000           14.20811          -0.462370
        17.75000           14.68140           0.342678
        17.76000           15.26282           1.100122
        17.77000           15.95549           1.794308
        17.78000           16.75960           2.405155
        17.79000           17.67133           2.909091
        17.80000           18.67952           3.279201
        17.81000           19.76435           3.488093
        17.82000           20.89448           3.511290
        17.83000           22.02859           3.332775
        17.84000           23.11740           2.950565
        17.85000           24.11190           2.380108
        17.86000           24.97088           1.653970
        17.87000           25.66953           0.814794
        17.88000           26.20045          -0.093738
        17.89000           26.56980          -1.036886
        17.90000           26.78737          -1.991028
        17.91000           26.85871          -2.940983
        17.92000           26.78195          -3.870224
        17.93000           26.55228          -4.754205
        17.94000           26.17119          -5.556935
        17.95000           25.65517          -6.236409
        17.96000           25.03885          -6.754693
        17.97000           24.37200          -7.086966
        17.98000           23.71084          -7.227687
        17.99000           23.10983          -7.190328
        18.00000           22.61442          -7.003749
        18.01000           22.25848          -6.707122
        18.02000           22.06293          -6.345123
        18.03000           22.03665          -5.965027
        18.04000           22.17664          -5.614046
        18.05000           22.46812          -5.337843
        18.06000           22.88423          -5.177525
        18.07000           23.38579          -5.166116
        18.08000           23.92376          -5.323390
        18.09000           24.44358          -5.651003
        18.10000           24.89417          -6.130327
        18.11000           25.23710          -6.724707
        18.12000           25.45474          -7.388659
        18.13000           25.55125          -8.079296
        18.14000           25.54663          -8.768220
        18.15000           25.46495          -9.445814
        18.16000           25.32221          -10.11937
        18.17000           25.11852          -10.80295
        18.18000           24.83681          -11.50612
        18.19000           24.44977          -12.22279
        18.20000           23.93086          -12.92756
        18.21000           23.26698          -13.57804
        18.22000           22.46556          -14.12567
        18.23000           21.55573          -14.52708
        18.24000           20.58087          -14.75419
        18.25000           19.59024          -14.79737
        18.26000           18.62911          -14.66389
        18.27000           17.73473          -14.37284
        18.28000           16.93337          -13.94931
        18.29000           16.24218          -13.42013
        18.30000           15.67083          -12.81101
        18.31000           15.22355          -12.14473
        18.32000           14.90188          -11.44175
        18.33000           14.70554          -10.71975
        18.34000           14.63379          -9.995355
        18.35000           14.68566          -9.284246
        18.36000           14.85991          -8.603091
        18.37000           15.15456          -7.969606
        18.38000           15.56554          -7.404111
        18.39000           16.08544          -6.929042
        18.40000           16.70079          -6.569098
        18.41000           17.39047          -6.348886
        18.42000           18.12305          -6.289958
        18.43000           18.85744          -6.405488
        18.44000           19.54471          -6.694431
        18.45000           20.13553          -7.136889
        18.46000           20.58911          -7.692870
        18.47000           20.88399          -8.307913
        18.48000           21.02371          -8.923229
        18.49000           21.03653          -9.489567
        18.50000           20.96738          -9.977109
        18.51000           20.86613          -10.38088
        18.52000           20.77601          -10.71849
        18.53000           20.72466          -11.02432
        18.54000           20.71939          -11.34048
        18.55000           20.74580          -11.70771
        18.56000           20.77027          -12.15571
        18.57000           20.74617          -12.69553
        18.58000           20.62368          -13.31388
        18.59000           20.36195          -13.97417
        18.60000           19.94017          -14.62258
        18.61000           19.36291          -15.20083
        18.62000           18.65898          -15.65823
        18.63000           17.87269          -15.96170
        18.64000           17.05438          -16.09813
        18.65000           16.25048          -16.07240
        18.66000           15.49913          -15.90174
        18.67000           14.82808          -15.61017
        18.68000           14.25535          -15.22375
        18.69000           13.79187          -14.76816
        18.70000           13.44310          -14.26696
        18.71000           13.21138          -13.74210
        18.72000           13.09681          -13.21375
        18.73000           13.09817          -12.70190
        18.74000           13.21269          -12.22664
        18.75000           13.43538          -11.80970
        18.76000           13.75783          -11.47433
        18.77000           14.16593          -11.24555
        18.78000           14.63806          -11.14845
        18.79000           15.14251          -11.20541
        18.80000           15.63723          -11.43134
        18.81000           16.07099          -11.82759
        18.82000           16.38955          -12.37677
        18.83000           16.54420          -13.03962
        18.84000           16.50271          -13.75883
        18.85000           16.25726          -14.46713
        18.86000           15.82621          -15.10073
        18.87000           15.24924          -15.60976
        18.88000           14.57700          -15.96531
        18.89000           13.86147          -16.15891
        18.90000           13.14761          -16.19856
        18.91000           12.47055          -16.10248
        18.92000           11.85435          -15.89346
        18.93000           11.31439          -15.59507
        18.94000           10.85892          -15.22901
        18.95000           10.49198          -14.81457
        18.96000           10.21473          -14.36805
        18.97000           10.02720          -13.90379
        18.98000           9.928889          -13.43423
        18.99000           9.919436          -12.97139
        19.00000           9.998648          -12.52709
        19.01000           10.16627          -12.11446
        19.02000           10.42154          -11.74803
        19.03000           10.76202          -11.44509
        19.04000           11.18215          -11.22556
        19.05000           11.67151          -11.11188
        19.06000           12.21200          -11.12785
        19.07000           12.77624          -11.29586
        19.08000           13.32563          -11.63240
        19.09000           13.81206          -12.14246
        19.10000           14.18184          -12.81314
        19.11000           14.38458          -13.61076
        19.12000           14.38338          -14.48145
        19.13000           14.16406          -15.35976
        19.14000           13.73881          -16.17970
        19.15000           13.14230          -16.88773
        19.16000           12.42319          -17.44946
        19.17000           11.63275          -17.85209
        19.18000           10.81735          -18.10005
        19.19000           10.01287          -18.20964
        19.20000           9.244558          -18.20274
        19.21000           8.527265          -18.10249
        19.22000           7.868577          -17.93052
        19.23000           7.270199          -17.70539
        19.24000           6.730736          -17.44246
        19.25000           6.246400          -17.15376
        19.26000           5.812737          -16.84874
        19.27000           5.424651          -16.53432
        19.28000           5.077375          -16.21584
        19.29000           4.766187          -15.89699
        19.30000           4.486977          -15.58058
        19.31000           4.235880          -15.26842
        19.32000           4.009630          -14.96189
        19.33000           3.805216          -14.66171
        19.34000           3.620130          -14.36850
        19.35000           3.452076          -14.08240
        19.36000           3.299158          -13.80361
        19.37000           3.159629          -13.53196
        19.38000           3.032059          -13.26744
        19.39000           2.915122          -13.00975
        19.40000           2.807714          -12.75871
        19.41000           2.708873          -12.51411
        19.42000           2.617707          -12.27560
        19.43000           2.533492          -12.04297
        19.44000           2.455540          -11.81589
        19.45000           2.383293          -11.59415
        19.46000           2.316211          -11.37741
        19.47000           2.253860          -11.16548
        19.48000           2.195817          -10.95806
        19.49000           2.141740          -10.75497
        19.50000           2.091294          -10.55591
        19.51000           2.044207          -10.36074
        19.52000           2.000211          -10.16917
        19.53000           1.959092          -9.981078
        19.54000           1.920632          -9.796217
        19.55000           1.884660          -9.614462
        19.56000           1.851000          -9.435575
        19.57000           1.819514          -9.259462
        19.58000           1.790061          -9.085900
        19.59000           1.762527          -8.914802
        19.60000           1.736797          -8.745968
        19.61000           1.712783          -8.579311
        19.62000           1.690388          -8.414649
        19.63000           1.669544          -8.251911
        19.64000           1.650171          -8.090915
        19.65000           1.632214          -7.931602
        19.66000           1.615610          -7.773799
        19.67000           1.600318          -7.617455
        19.68000           1.586286          -7.462408
        19.69000           1.573484          -7.308597
        19.70000           1.561873          -7.155877
        19.71000           1.551429          -7.004196
        19.72000           1.542127          -6.853405
        19.73000           1.533952          -6.703459
        19.74000           1.526888          -6.554206
        19.75000           1.520925          -6.405583
        19.76000           1.516060          -6.257520
        19.77000           1.512292          -6.109866
        19.78000           1.509624          -5.962583
        19.79000           1.508065          -5.815526
        19.80000           1.507628          -5.668649
        19.81000           1.508330          -5.521806
        19.82000           1.510194          -5.374954
        19.83000           1.513248          -5.227941
        19.84000           1.517525          -5.080714
        19.85000           1.523063          -4.933131
        19.86000           1.529909          -4.785129
        19.87000           1.538116          -4.636552
        19.88000           1.547740          -4.487344
        19.89000           1.558853          -4.337339
        19.90000           1.571529          -4.186467
        19.91000           1.585856          -4.034556
        19.92000           1.601927          -3.881534
        19.93000           1.619858          -3.727215
        19.94000           1.639764          -3.571513
        19.95000           1.661789          -3.414239
        19.96000           1.686080          -3.255285
        19.97000           1.712819          -3.094452
        19.98000           1.742191          -2.931622
        19.99000           1.774423          -2.766577
        20.00000           1.809753          -2.599186
# 
# 11/10/2023 at 10:04 yambo @ unimi-XPS-8930 [start]
# 11/10/2023 at 10:05                        [end]
#
# .-Input file  yambo.in
# | rim_cut                          # [R] Coulomb potential
# | optics                           # [R] Linear Response optical properties
# | dipoles                          # [R] Oscillator strenghts (or dipoles)
# | bse                              # [R][BSE] Bethe Salpeter Equation.
# | ElecTemp= 0.025861         eV    # Electronic Temperature
# | BoseTemp= 0.025861         eV    # Bosonic Temperature
# | DIP_Threads= 1                   # [OPENMP/X] Number of threads for dipoles
# | BS_nCPU_LinAlg_INV= 1            # [PARALLEL] CPUs for Linear Algebra (if -1 it is automatically set)
# | BS_nCPU_LinAlg_DIAGO= 1          # [PARALLEL] CPUs for Linear Algebra (if -1 it is automatically set)
# | X_Threads= 1                     # [OPENMP/X] Number of threads for response functions
# | K_Threads= 1                     # [OPENMP/BSK] Number of threads for response functions
# | RandQpts=0                       # [RIM] Number of random q-points in the BZ
# | RandGvec= 1                RL    # [RIM] Coulomb interaction RS components
# | CUTGeo= "ws xyz"                 # [CUT] Coulomb Cutoff geometry: box/cylinder/sphere/ws/slab X/Y/Z/XY..
# | % CUTBox
# |  0.000000 | 0.000000 | 0.000000 |        # [CUT] [au] Box sides
# | %
# | CUTRadius= 0.000000              # [CUT] [au] Sphere/Cylinder radius
# | CUTCylLen= 0.000000              # [CUT] [au] Cylinder length
# | CUTwsGvec= 0.700000              # [CUT] WS cutoff: number of G to be modified
# | BSKmod= "IP"                     # [BSE] IP/Hartree/HF/ALDA/SEX/BSfxc
# | BSEmod= "retarded"               # [BSE] resonant/retarded/coupling
# | Lkind= "Lbar"                    # [BSE,X] bar(default)/full
# | DipBandsALL                    # [DIP] Compute all bands range, not only valence and conduction
# | DipComputed= "R V P"             # [DIP] [default R P V; extra P2 Spin Orb]
# | DbGdQsize= 1.000000              # [X,DbGd][o/o] Percentual of the total DbGd transitions to be used
# | BSENGexx= 20395            RL    # [BSK] Exchange components
# | % BSEQptR
# |  1 | 1 |                             # [BSK] Transferred momenta range
# | %
# | % BSEBands
# |   1 | 20 |                           # [BSK] Bands range
# | %
# | % BEnRange
# |   0.00000 | 20.00000 |         eV    # [BSS] Energy range
# | %
# | % BDmRange
# |  0.100000 | 0.100000 |         eV    # [BSS] Damping range
# | %
# | BEnSteps= 2001                   # [BSS] Energy steps
# | % BLongDir
# |  0.100000E-4 |  0.00000    |  0.00000    # [BSS] [cc] Electric Field
# | %
# | BSEprop= "abs dichr jdos"        # [BSS] Can be any among abs/jdos/kerr/magn/dich/photolum/esrt
# | BSEdips= "none"                  # [BSS] Can be "trace/none" or "xy/xz/yz" to define off-diagonal rotation plane
