#                                                                     
# ooooo   oooo ..     ooo        ooo ooooooooo.    .oooo.             
#  `88.   .8" .88.    `88.       .88 `88"   `Y8b  dP"  `Yb            
#   `88. .8" .8"88.    888b     d"88  88     888 88      88           
#    `88.8" .8" `88.   8 Y88. .P  88  88oooo888" 88      88           
#     `88" .88ooo888.  8  `888"   88  88    `88b 88      88           
#      88 .8"     `88. 8    Y     88  88    .88P `8b    d8"           
#     o88o88o      888o8          88 o88bood8P"   `Ybod8P"            
#                                                                     
#                                                                     
# Version 5.2.0 Revision 23236 Hash (prev commit) fef8b788e7          
#                 Branch is phys-dichroism                            
#          MPI+OpenMP+SLK+SLEPC+HDF5_MPI_IO Build                     
#                 http://www.yambo-code.org                           
#
# Polarizability  ( -<<X>> ) @ Q(1):   1.00000000      0.00000000      0.00000000    [q->0 direction]
#
# Polarizability units: volume
#
# [GEN] GF Energies                               : Perdew, Burke & Ernzerhof(X)+Perdew, Burke & Ernzerhof(C)
# [GEN] Green`s Function                          : Retarded
#
# [GEN] Gauge                                     : Length
# [GEN] [r,Vnl] included                          : yes
#
# DIP band range                                  :   2   7
# DIP band range limits                           :   7   2
# DIP e/h energy range                            :  -1.00000000     -1.00000000    [eV]
# RL vectors in the sum                           :  2637
# [r,Vnl] included                                : yes
# Bands ordered                                   : no
# Direct v evaluation                             : no
# Approach used                                   : G-space v
# Dipoles computed                                : R V P
# Wavefunctions                                   : Perdew, Burke & Ernzerhof(X)+Perdew, Burke & Ernzerhof(C)
#
#
# [K] Identifier                                  :  1723
# [K] Dimension                                   :   9
# [K] Bands                                       :   2   7
# [K] Exchange res                                : yes
# [K] Correlation res                             : no
# [K] Kernel`s coupling                           : no
# [K] Exchange cpl                                : no
# [K] Correlation cpl                             : no
# [K] W interaction is bare                       : no
# [K] ALDA kernel in R-space                      : no
# [K] RL vectors exchange                         :   4015
# [K] E/h energy range                            :  -1.00000000     -1.00000000    [eV]
# [K] Coupling range                              :   100.000000      100.000000    [o/o]
# [X] Response Kind                               : BAR
#
#
#    E[1] [eV]          Im(alpha)          Re(alpha)          Im(alpha_o)        Re(alpha_o)
#
       -20.00000          -0.218571          -12.71036          -0.086354          -7.025526
       -19.98000          -0.219929          -12.75419          -0.086696          -7.042828
       -19.96000          -0.221300          -12.79829          -0.087040          -7.060198
       -19.94000          -0.222684          -12.84266          -0.087386          -7.077638
       -19.92000          -0.224081          -12.88732          -0.087734          -7.095146
       -19.90000          -0.225491          -12.93225          -0.088084          -7.112725
       -19.88000          -0.226915          -12.97747          -0.088436          -7.130373
       -19.86000          -0.228354          -13.02297          -0.088790          -7.148094
       -19.84000          -0.229806          -13.06876          -0.089146          -7.165882
       -19.82000          -0.231272          -13.11485          -0.089503          -7.183745
       -19.80000          -0.232753          -13.16123          -0.089863          -7.201677
       -19.78000          -0.234248          -13.20790          -0.090225          -7.219683
       -19.76000          -0.235758          -13.25488          -0.090589          -7.237761
       -19.74000          -0.237283          -13.30215          -0.090956          -7.255912
       -19.72000          -0.238824          -13.34974          -0.091324          -7.274136
       -19.70000          -0.240379          -13.39763          -0.091694          -7.292434
       -19.68000          -0.241951          -13.44584          -0.092067          -7.310806
       -19.66000          -0.243538          -13.49436          -0.092442          -7.329254
       -19.64000          -0.245141          -13.54321          -0.092819          -7.347778
       -19.62000          -0.246761          -13.59237          -0.093198          -7.366375
       -19.60000          -0.248397          -13.64186          -0.093579          -7.385049
       -19.58000          -0.250049          -13.69167          -0.093962          -7.403800
       -19.56000          -0.251719          -13.74182          -0.094348          -7.422626
       -19.54000          -0.253406          -13.79230          -0.094736          -7.441531
       -19.52000          -0.255111          -13.84312          -0.095126          -7.460514
       -19.50000          -0.256833          -13.89429          -0.095519          -7.479574
       -19.48000          -0.258573          -13.94580          -0.095914          -7.498714
       -19.46000          -0.260331          -13.99766          -0.096311          -7.517931
       -19.44000          -0.262108          -14.04987          -0.096711          -7.537231
       -19.42000          -0.263904          -14.10244          -0.097113          -7.556608
       -19.40000          -0.265718          -14.15537          -0.097517          -7.576067
       -19.38000          -0.267552          -14.20866          -0.097924          -7.595607
       -19.36000          -0.269406          -14.26233          -0.098333          -7.615228
       -19.34000          -0.271279          -14.31636          -0.098744          -7.634933
       -19.32000          -0.273173          -14.37077          -0.099159          -7.654718
       -19.30000          -0.275087          -14.42556          -0.099575          -7.674587
       -19.28000          -0.277022          -14.48074          -0.099994          -7.694541
       -19.26000          -0.278978          -14.53630          -0.100416          -7.714578
       -19.24000          -0.280956          -14.59226          -0.100840          -7.734697
       -19.22000          -0.282955          -14.64861          -0.101266          -7.754904
       -19.20000          -0.284976          -14.70537          -0.101696          -7.775197
       -19.18000          -0.287020          -14.76253          -0.102128          -7.795574
       -19.16000          -0.289087          -14.82010          -0.102562          -7.816039
       -19.14000          -0.291176          -14.87809          -0.102999          -7.836590
       -19.12000          -0.293289          -14.93650          -0.103439          -7.857230
       -19.10000          -0.295426          -14.99533          -0.103881          -7.877958
       -19.08000          -0.297587          -15.05459          -0.104327          -7.898774
       -19.06000          -0.299773          -15.11428          -0.104774          -7.919678
       -19.04000          -0.301984          -15.17442          -0.105225          -7.940674
       -19.02000          -0.304220          -15.23499          -0.105679          -7.961760
       -19.00000          -0.306482          -15.29602          -0.106135          -7.982935
       -18.98000          -0.308770          -15.35750          -0.106594          -8.004204
       -18.96000          -0.311085          -15.41944          -0.107056          -8.025565
       -18.94000          -0.313426          -15.48185          -0.107521          -8.047017
       -18.92000          -0.315795          -15.54472          -0.107988          -8.068563
       -18.90000          -0.318193          -15.60808          -0.108459          -8.090204
       -18.88000          -0.320618          -15.67190          -0.108932          -8.111938
       -18.86000          -0.323072          -15.73623          -0.109409          -8.133768
       -18.84000          -0.325556          -15.80104          -0.109889          -8.155692
       -18.82000          -0.328069          -15.86635          -0.110371          -8.177713
       -18.80000          -0.330613          -15.93217          -0.110857          -8.199831
       -18.78000          -0.333187          -15.99850          -0.111345          -8.222046
       -18.76000          -0.335793          -16.06534          -0.111837          -8.244359
       -18.74000          -0.338431          -16.13271          -0.112332          -8.266771
       -18.72000          -0.341101          -16.20061          -0.112830          -8.289281
       -18.70000          -0.343804          -16.26904          -0.113331          -8.311892
       -18.68000          -0.346540          -16.33802          -0.113835          -8.334603
       -18.66000          -0.349311          -16.40755          -0.114343          -8.357415
       -18.64000          -0.352116          -16.47763          -0.114854          -8.380329
       -18.62000          -0.354956          -16.54828          -0.115368          -8.403346
       -18.60000          -0.357833          -16.61950          -0.115885          -8.426465
       -18.58000          -0.360746          -16.69129          -0.116406          -8.449690
       -18.56000          -0.363696          -16.76367          -0.116930          -8.473017
       -18.54000          -0.366683          -16.83665          -0.117458          -8.496449
       -18.52000          -0.369710          -16.91022          -0.117989          -8.519988
       -18.50000          -0.372775          -16.98440          -0.118523          -8.543633
       -18.48000          -0.375880          -17.05920          -0.119061          -8.567387
       -18.46000          -0.379026          -17.13462          -0.119602          -8.591247
       -18.44000          -0.382213          -17.21067          -0.120147          -8.615215
       -18.42000          -0.385442          -17.28737          -0.120696          -8.639293
       -18.40000          -0.388714          -17.36471          -0.121248          -8.663481
       -18.38000          -0.392030          -17.44271          -0.121804          -8.687780
       -18.36000          -0.395390          -17.52138          -0.122363          -8.712192
       -18.34000          -0.398796          -17.60072          -0.122926          -8.736713
       -18.32000          -0.402247          -17.68075          -0.123493          -8.761350
       -18.30000          -0.405746          -17.76147          -0.124064          -8.786098
       -18.28000          -0.409292          -17.84289          -0.124638          -8.810961
       -18.26000          -0.412887          -17.92502          -0.125216          -8.835941
       -18.24000          -0.416532          -18.00788          -0.125799          -8.861035
       -18.22000          -0.420227          -18.09147          -0.126385          -8.886248
       -18.20000          -0.423974          -18.17581          -0.126975          -8.911578
       -18.18000          -0.427774          -18.26089          -0.127569          -8.937024
       -18.16000          -0.431627          -18.34674          -0.128167          -8.962593
       -18.14000          -0.435535          -18.43336          -0.128769          -8.988276
       -18.12000          -0.439499          -18.52077          -0.129375          -9.014087
       -18.10000          -0.443519          -18.60897          -0.129985          -9.040017
       -18.08000          -0.447598          -18.69799          -0.130599          -9.066067
       -18.06000          -0.451736          -18.78782          -0.131218          -9.092241
       -18.04000          -0.455934          -18.87849          -0.131841          -9.118542
       -18.02000          -0.460194          -18.96999          -0.132468          -9.144963
       -18.00000          -0.464516          -19.06236          -0.133099          -9.171513
       -17.98000          -0.468903          -19.15559          -0.133735          -9.198190
       -17.96000          -0.473355          -19.24971          -0.134375          -9.224995
       -17.94000          -0.477874          -19.34471          -0.135020          -9.251925
       -17.92000          -0.482461          -19.44063          -0.135669          -9.278986
       -17.90000          -0.487117          -19.53747          -0.136323          -9.306177
       -17.88000          -0.491845          -19.63524          -0.136981          -9.333502
       -17.86000          -0.496645          -19.73397          -0.137644          -9.360955
       -17.84000          -0.501520          -19.83366          -0.138311          -9.388542
       -17.82000          -0.506470          -19.93433          -0.138983          -9.416265
       -17.80000          -0.511497          -20.03600          -0.139660          -9.444120
       -17.78000          -0.516604          -20.13867          -0.140342          -9.472112
       -17.76000          -0.521791          -20.24237          -0.141028          -9.500242
       -17.74000          -0.527061          -20.34712          -0.141719          -9.528507
       -17.72000          -0.532415          -20.45292          -0.142416          -9.556913
       -17.70000          -0.537855          -20.55980          -0.143117          -9.585457
       -17.68000          -0.543383          -20.66777          -0.143823          -9.614143
       -17.66000          -0.549002          -20.77686          -0.144534          -9.642970
       -17.64000          -0.554712          -20.88707          -0.145251          -9.671940
       -17.62000          -0.560517          -20.99843          -0.145972          -9.701054
       -17.60000          -0.566418          -21.11096          -0.146699          -9.730313
       -17.58000          -0.572418          -21.22468          -0.147431          -9.759716
       -17.56000          -0.578518          -21.33960          -0.148168          -9.789265
       -17.54000          -0.584722          -21.45575          -0.148911          -9.818965
       -17.52000          -0.591032          -21.57314          -0.149659          -9.848813
       -17.50000          -0.597449          -21.69181          -0.150413          -9.878812
       -17.48000          -0.603978          -21.81176          -0.151172          -9.908960
       -17.46000          -0.610620          -21.93303          -0.151936          -9.939262
       -17.44000          -0.617377          -22.05562          -0.152707          -9.969715
       -17.42000          -0.624255          -22.17960          -0.153483          -10.00033
       -17.40000          -0.631253          -22.30493          -0.154264          -10.03109
       -17.38000          -0.638377          -22.43169          -0.155052          -10.06201
       -17.36000          -0.645628          -22.55987          -0.155845          -10.09309
       -17.34000          -0.653011          -22.68951          -0.156644          -10.12433
       -17.32000          -0.660527          -22.82064          -0.157450          -10.15573
       -17.30000          -0.668182          -22.95327          -0.158261          -10.18729
       -17.28000          -0.675978          -23.08744          -0.159078          -10.21902
       -17.26000          -0.683918          -23.22319          -0.159902          -10.25090
       -17.24000          -0.692007          -23.36053          -0.160731          -10.28296
       -17.22000          -0.700249          -23.49949          -0.161567          -10.31518
       -17.20000          -0.708647          -23.64011          -0.162410          -10.34756
       -17.18000          -0.717205          -23.78242          -0.163259          -10.38012
       -17.16000          -0.725929          -23.92645          -0.164114          -10.41284
       -17.14000          -0.734821          -24.07224          -0.164976          -10.44574
       -17.12000          -0.743888          -24.21982          -0.165844          -10.47881
       -17.10000          -0.753132          -24.36921          -0.166719          -10.51206
       -17.08000          -0.762560          -24.52047          -0.167601          -10.54548
       -17.06000          -0.772176          -24.67362          -0.168490          -10.57908
       -17.04000          -0.781986          -24.82870          -0.169385          -10.61285
       -17.02000          -0.791995          -24.98576          -0.170288          -10.64681
       -17.00000          -0.802208          -25.14483          -0.171197          -10.68094
       -16.98000          -0.812632          -25.30596          -0.172114          -10.71526
       -16.96000          -0.823271          -25.46918          -0.173038          -10.74977
       -16.94000          -0.834133          -25.63454          -0.173969          -10.78445
       -16.92000          -0.845225          -25.80208          -0.174907          -10.81933
       -16.90000          -0.856551          -25.97185          -0.175853          -10.85439
       -16.88000          -0.868121          -26.14391          -0.176807          -10.88965
       -16.86000          -0.879940          -26.31829          -0.177768          -10.92509
       -16.84000          -0.892016          -26.49504          -0.178736          -10.96073
       -16.82000          -0.904357          -26.67422          -0.179713          -10.99656
       -16.80000          -0.916971          -26.85589          -0.180697          -11.03259
       -16.78000          -0.929866          -27.04009          -0.181689          -11.06881
       -16.76000          -0.943052          -27.22688          -0.182689          -11.10524
       -16.74000          -0.956536          -27.41633          -0.183697          -11.14186
       -16.72000          -0.970330          -27.60850          -0.184713          -11.17869
       -16.70000          -0.984439          -27.80342          -0.185738          -11.21572
       -16.68000          -0.998879          -28.00120          -0.186771          -11.25296
       -16.66000          -1.013657          -28.20188          -0.187812          -11.29040
       -16.64000          -1.028785          -28.40552          -0.188862          -11.32806
       -16.62000          -1.044274          -28.61221          -0.189921          -11.36592
       -16.60000          -1.060136          -28.82201          -0.190988          -11.40400
       -16.58000          -1.076383          -29.03500          -0.192064          -11.44229
       -16.56000          -1.093029          -29.25126          -0.193149          -11.48079
       -16.54000          -1.110087          -29.47086          -0.194244          -11.51952
       -16.52000          -1.127572          -29.69389          -0.195347          -11.55846
       -16.50000          -1.145497          -29.92044          -0.196459          -11.59762
       -16.48000          -1.163878          -30.15059          -0.197581          -11.63701
       -16.46000          -1.182732          -30.38445          -0.198712          -11.67662
       -16.44000          -1.202074          -30.62209          -0.199853          -11.71647
       -16.42000          -1.221923          -30.86362          -0.201003          -11.75654
       -16.40000          -1.242296          -31.10913          -0.202164          -11.79683
       -16.38000          -1.263213          -31.35875          -0.203334          -11.83737
       -16.36000          -1.284694          -31.61257          -0.204514          -11.87813
       -16.34000          -1.306760          -31.87071          -0.205704          -11.91914
       -16.32000          -1.329433          -32.13329          -0.206905          -11.96038
       -16.30000          -1.352736          -32.40042          -0.208115          -12.00187
       -16.28000          -1.376692          -32.67223          -0.209337          -12.04359
       -16.26000          -1.401328          -32.94887          -0.210569          -12.08557
       -16.24000          -1.426670          -33.23045          -0.211811          -12.12779
       -16.22000          -1.452745          -33.51713          -0.213065          -12.17026
       -16.20000          -1.479584          -33.80905          -0.214329          -12.21298
       -16.18000          -1.507216          -34.10636          -0.215605          -12.25595
       -16.16000          -1.535674          -34.40923          -0.216892          -12.29918
       -16.14000          -1.564992          -34.71781          -0.218190          -12.34267
       -16.12000          -1.595206          -35.03228          -0.219500          -12.38642
       -16.10000          -1.626353          -35.35283          -0.220821          -12.43043
       -16.08000          -1.658474          -35.67963          -0.222154          -12.47471
       -16.06000          -1.691612          -36.01292          -0.223499          -12.51926
       -16.04000          -1.725805          -36.35280          -0.224856          -12.56407
       -16.02000          -1.761108          -36.69961          -0.226226          -12.60916
       -16.00000          -1.797561          -37.05345          -0.227608          -12.65452
       -15.98000          -1.835227          -37.41467          -0.229002          -12.70016
       -15.96000          -1.874149          -37.78339          -0.230409          -12.74608
       -15.94000          -1.914398          -38.16000          -0.231829          -12.79228
       -15.92000          -1.956021          -38.54462          -0.233262          -12.83877
       -15.90000          -1.999099          -38.93765          -0.234708          -12.88554
       -15.88000          -2.043689          -39.33931          -0.236168          -12.93261
       -15.86000          -2.089869          -39.74991          -0.237641          -12.97997
       -15.84000          -2.137716          -40.16978          -0.239127          -13.02762
       -15.82000          -2.187313          -40.59925          -0.240628          -13.07557
       -15.80000          -2.238747          -41.03867          -0.242143          -13.12383
       -15.78000          -2.292114          -41.48840          -0.243671          -13.17239
       -15.76000          -2.347511          -41.94884          -0.245215          -13.22125
       -15.74000          -2.405046          -42.42038          -0.246772          -13.27042
       -15.72000          -2.464831          -42.90346          -0.248345          -13.31991
       -15.70000          -2.526987          -43.39851          -0.249932          -13.36971
       -15.68000          -2.591644          -43.90602          -0.251535          -13.41983
       -15.66000          -2.658939          -44.42649          -0.253153          -13.47027
       -15.64000          -2.729020          -44.96043          -0.254787          -13.52104
       -15.62000          -2.802045          -45.50841          -0.256436          -13.57214
       -15.60000          -2.878185          -46.07101          -0.258101          -13.62356
       -15.58000          -2.957621          -46.64884          -0.259783          -13.67533
       -15.56000          -3.040548          -47.24256          -0.261481          -13.72742
       -15.54000          -3.127177          -47.85287          -0.263195          -13.77986
       -15.52000          -3.217735          -48.48048          -0.264927          -13.83265
       -15.50000          -3.312465          -49.12620          -0.266675          -13.88578
       -15.48000          -3.411633          -49.79086          -0.268441          -13.93926
       -15.46000          -3.515521          -50.47530          -0.270225          -13.99310
       -15.44000          -3.624438          -51.18047          -0.272026          -14.04729
       -15.42000          -3.738719          -51.90738          -0.273845          -14.10185
       -15.40000          -3.858722          -52.65707          -0.275682          -14.15677
       -15.38000          -3.984843          -53.43068          -0.277538          -14.21206
       -15.36000          -4.117508          -54.22940          -0.279413          -14.26772
       -15.34000          -4.257182          -55.05453          -0.281307          -14.32376
       -15.32000          -4.404384          -55.90751          -0.283220          -14.38019
       -15.30000          -4.559629          -56.78961          -0.285153          -14.43699
       -15.28000          -4.723577          -57.70267          -0.287106          -14.49418
       -15.26000          -4.896836          -58.64813          -0.289078          -14.55176
       -15.24000          -5.080191          -59.62809          -0.291072          -14.60975
       -15.22000          -5.274381          -60.64420          -0.293085          -14.66812
       -15.20000          -5.480353          -61.69891          -0.295121          -14.72691
       -15.18000          -5.699012          -62.79416          -0.297177          -14.78610
       -15.16000          -5.931503          -63.93275          -0.299255          -14.84571
       -15.14000          -6.178964          -65.11708          -0.301355          -14.90574
       -15.12000          -6.442736          -66.35014          -0.303477          -14.96618
       -15.10000          -6.724286          -67.63505          -0.305622          -15.02705
       -15.08000          -7.025259          -68.97521          -0.307789          -15.08836
       -15.06000          -7.347485          -70.37436          -0.309980          -15.15009
       -15.04000          -7.693017          -71.83651          -0.312195          -15.21227
       -15.02000          -8.064163          -73.36609          -0.314434          -15.27489
       -15.00000          -8.463523          -74.96793          -0.316697          -15.33796
       -14.98000          -8.894028          -76.64732          -0.318984          -15.40149
       -14.96000          -9.359005          -78.41010          -0.321297          -15.46547
       -14.94000          -9.862226          -80.26266          -0.323635          -15.52992
       -14.92000          -10.40800          -82.21208          -0.325999          -15.59484
       -14.90000          -11.00126          -84.26616          -0.328390          -15.66024
       -14.88000          -11.64765          -86.43355          -0.330807          -15.72611
       -14.86000          -12.35368          -88.72385          -0.333251          -15.79247
       -14.84000          -13.12690          -91.14774          -0.335722          -15.85932
       -14.82000          -13.97604          -93.71714          -0.338222          -15.92667
       -14.80000          -14.91133          -96.44533          -0.340750          -15.99452
       -14.78000          -15.94472          -99.34723          -0.343306          -16.06288
       -14.76000          -17.09031          -102.4396          -0.345892          -16.13174
       -14.74000          -18.36478          -105.7412          -0.348508          -16.20113
       -14.72000          -19.78797          -109.2732          -0.351154          -16.27105
       -14.70000          -21.38366          -113.0597          -0.353830          -16.34150
       -14.68000          -23.18045          -117.1277          -0.356538          -16.41248
       -14.66000          -25.21304          -121.5078          -0.359277          -16.48400
       -14.64000          -27.52374          -126.2348          -0.362049          -16.55608
       -14.62000          -30.16461          -131.3479          -0.364854          -16.62872
       -14.60000          -33.20007          -136.8916          -0.367692          -16.70192
       -14.58000          -36.71088          -142.9159          -0.370563          -16.77569
       -14.56000          -40.79742          -149.4749          -0.373469          -16.85003
       -14.54000          -45.58961          -156.6315          -0.376411          -16.92496
       -14.52000          -51.25072          -164.4484          -0.379387          -17.00047
       -14.50000          -57.99561          -172.9945          -0.382400          -17.07660
       -14.48000          -66.09989          -182.3287          -0.385450          -17.15331
       -14.46000          -75.93137          -192.4999          -0.388537          -17.23066
       -14.44000          -87.96976          -203.5130          -0.391662          -17.30861
       -14.42000          -102.8597          -215.3024          -0.394826          -17.38720
       -14.40000          -121.4452          -227.6476          -0.398030          -17.46641
       -14.38000          -144.8320          -240.0556          -0.401273          -17.54627
       -14.36000          -174.4074          -251.5336          -0.404558          -17.62679
       -14.34000          -211.7696          -260.2232          -0.407884          -17.70796
       -14.32000          -258.3821          -262.8585          -0.411252          -17.78980
       -14.30000          -314.6175          -254.1730          -0.414663          -17.87232
       -14.28000          -377.7701          -226.8759          -0.418118          -17.95552
       -14.26000          -439.2818          -173.7309          -0.421618          -18.03942
       -14.24000          -483.8790          -93.26857          -0.425164          -18.12402
       -14.22000          -495.5945           3.733745          -0.428755          -18.20934
       -14.20000          -469.5072           96.36909          -0.432394          -18.29537
       -14.18000          -416.1654           166.5900          -0.436081          -18.38214
       -14.16000          -352.5363           208.8917          -0.439816          -18.46964
       -14.14000          -291.4866           227.9011          -0.443602          -18.55790
       -14.12000          -238.9607           231.3439          -0.447438          -18.64692
       -14.10000          -196.1418           225.8007          -0.451326          -18.73670
       -14.08000          -162.0559           215.6933          -0.455267          -18.82727
       -14.06000          -135.1158           203.6596          -0.459262          -18.91864
       -14.04000          -113.7858           191.1620          -0.463311          -19.01080
       -14.02000          -96.78914           178.9626          -0.467416          -19.10378
       -14.00000          -83.12792           167.4264          -0.471579          -19.19758
       -13.98000          -72.04239           156.7011          -0.475799          -19.29222
       -13.96000          -62.95935           146.8190          -0.480079          -19.38770
       -13.94000          -55.44645           137.7536          -0.484419          -19.48405
       -13.92000          -49.17606           129.4510          -0.488821          -19.58127
       -13.90000          -43.89821           121.8465          -0.493286          -19.67937
       -13.88000          -39.42054           114.8737          -0.497815          -19.77837
       -13.86000          -35.59377           108.4690          -0.502409          -19.87828
       -13.84000          -32.30071           102.5731          -0.507071          -19.97912
       -13.82000          -29.44972           97.13419          -0.511801          -20.08089
       -13.80000          -26.96622           92.10272          -0.516601          -20.18361
       -13.78000          -24.79190           87.43800          -0.521472          -20.28729
       -13.76000          -22.87812           83.10105          -0.526416          -20.39197
       -13.74000          -21.18645           79.06010          -0.531434          -20.49762
       -13.72000          -19.68423           75.28453          -0.536529          -20.60429
       -13.70000          -18.34541           71.74969          -0.541700          -20.71197
       -13.68000          -17.14746           68.43152          -0.546952          -20.82071
       -13.66000          -16.07222           65.31044          -0.552284          -20.93050
       -13.64000          -15.10404           62.36813          -0.557700          -21.04135
       -13.62000          -14.22974           59.58847          -0.563200          -21.15330
       -13.60000          -13.43816           56.95706          -0.568787          -21.26635
       -13.58000          -12.71976           54.46101          -0.574463          -21.38052
       -13.56000          -12.06634           52.08876          -0.580229          -21.49584
       -13.54000          -11.47087           49.82990          -0.586089          -21.61231
       -13.52000          -10.92727           47.67501          -0.592044          -21.72996
       -13.50000          -10.43027           45.61560          -0.598096          -21.84881
       -13.48000          -9.975294           43.64391          -0.604248          -21.96887
       -13.46000          -9.558362           41.75294          -0.610502          -22.09017
       -13.44000          -9.175997           39.93624          -0.616861          -22.21273
       -13.42000          -8.825168           38.18794          -0.623327          -22.33657
       -13.40000          -8.503221           36.50263          -0.629903          -22.46170
       -13.38000          -8.207846           34.87530          -0.636591          -22.58816
       -13.36000          -7.937021           33.30134          -0.643395          -22.71596
       -13.34000          -7.689001           31.77647          -0.650318          -22.84513
       -13.32000          -7.462269           30.29666          -0.657362          -22.97569
       -13.30000          -7.255537           28.85816          -0.664531          -23.10766
       -13.28000          -7.067714           27.45743          -0.671829          -23.24108
       -13.26000          -6.897909           26.09113          -0.679257          -23.37597
       -13.24000          -6.745416           24.75604          -0.686821          -23.51234
       -13.22000          -6.609721           23.44911          -0.694523          -23.65024
       -13.20000          -6.490504           22.16737          -0.702367          -23.78969
       -13.18000          -6.387651           20.90789          -0.710359          -23.93071
       -13.16000          -6.301294           19.66797          -0.718500          -24.07334
       -13.14000          -6.231810           18.44476          -0.726797          -24.21760
       -13.12000          -6.179899           17.23549          -0.735253          -24.36353
       -13.10000          -6.146638           16.03742          -0.743873          -24.51117
       -13.08000          -6.133576           14.84778          -0.752661          -24.66053
       -13.06000          -6.142867           13.66383          -0.761623          -24.81166
       -13.04000          -6.177446           12.48287          -0.770765          -24.96459
       -13.02000          -6.241277           11.30235          -0.780091          -25.11937
       -13.00000          -6.339689           10.12006          -0.789607          -25.27600
       -12.98000          -6.479830           8.934488          -0.799319          -25.43456
       -12.96000          -6.671239           7.745447          -0.809234          -25.59507
       -12.94000          -6.926518           6.555338          -0.819357          -25.75757
       -12.92000          -7.261906           5.371208          -0.829696          -25.92211
       -12.90000          -7.697206           4.208474          -0.840258          -26.08872
       -12.88000          -8.253611           3.096621          -0.851051          -26.25746
       -12.86000          -8.946297           2.086968          -0.862082          -26.42837
       -12.84000          -9.766294           1.258620          -0.873359          -26.60148
       -12.82000          -10.64862           0.708984          -0.884891          -26.77687
       -12.80000          -11.44081           0.506071          -0.896687          -26.95457
       -12.78000          -11.92635           0.599196          -0.908756          -27.13465
       -12.76000          -11.94954           0.771259          -0.921109          -27.31715
       -12.74000          -11.54700           0.743048          -0.933757          -27.50213
       -12.72000          -10.91631           0.348435          -0.946709          -27.68965
       -12.70000          -10.26572          -0.415252          -0.959979          -27.87978
       -12.68000          -9.721606          -1.463507          -0.973578          -28.07256
       -12.66000          -9.331138          -2.704212          -0.987520          -28.26808
       -12.64000          -9.097912          -4.070364          -1.001819          -28.46640
       -12.62000          -9.009835          -5.522141          -1.016488          -28.66759
       -12.60000          -9.053311          -7.039594          -1.031545          -28.87172
       -12.58000          -9.218826          -8.615535          -1.047004          -29.07888
       -12.56000          -9.502706          -10.25049          -1.062885          -29.28914
       -12.54000          -9.907519          -11.94973          -1.079206          -29.50259
       -12.52000          -10.44233          -13.72133          -1.095987          -29.71931
       -12.50000          -11.12328          -15.57531          -1.113249          -29.93941
       -12.48000          -11.97455          -17.52227          -1.131015          -30.16296
       -12.46000          -13.03037          -19.57292          -1.149309          -30.39008
       -12.44000          -14.33767          -21.73614          -1.168157          -30.62086
       -12.42000          -15.95996          -24.01631          -1.187588          -30.85543
       -12.40000          -17.98268          -26.40829          -1.207631          -31.09388
       -12.38000          -20.51995          -28.88842          -1.228320          -31.33636
       -12.36000          -23.72196          -31.39836          -1.249688          -31.58297
       -12.34000          -27.78028          -33.81678          -1.271774          -31.83387
       -12.32000          -32.92248          -35.91184          -1.294618          -32.08918
       -12.30000          -39.37540          -37.26820          -1.318265          -32.34907
       -12.28000          -47.25409          -37.19787          -1.342763          -32.61368
       -12.26000          -56.31340          -34.70030          -1.368163          -32.88319
       -12.24000          -65.55410          -28.66068          -1.394524          -33.15778
       -12.22000          -72.96085          -18.54876          -1.421906          -33.43763
       -12.20000          -76.07532          -5.441490          -1.450379          -33.72294
       -12.18000          -73.62887           7.842116          -1.480017          -34.01393
       -12.16000          -66.65408           18.36274          -1.510901          -34.31082
       -12.14000          -57.56803           24.82216          -1.543124          -34.61386
       -12.12000          -48.48698           27.61880          -1.576785          -34.92332
       -12.10000          -40.52030           27.84724          -1.611995          -35.23945
       -12.08000          -33.97609           26.53797          -1.648876          -35.56256
       -12.06000          -28.76419           24.41419          -1.687567          -35.89298
       -12.04000          -24.66266           21.91733          -1.728222          -36.23106
       -12.02000          -21.44102           19.29555          -1.771012          -36.57716
       -12.00000          -18.90268           16.67964          -1.816133          -36.93170
       -11.98000          -16.89240           14.13313          -1.863802          -37.29510
       -11.96000          -15.29163           11.68242          -1.914269          -37.66787
       -11.94000          -14.01098           9.333930          -1.967815          -38.05050
       -11.92000          -12.98327           7.083759          -2.024762          -38.44358
       -11.90000          -12.15790           4.922958          -2.085481          -38.84773
       -11.88000          -11.49658           2.840413          -2.150395          -39.26363
       -11.86000          -10.97018           0.824338          -2.219997          -39.69205
       -11.84000          -10.55646          -1.136897          -2.294858          -40.13383
       -11.82000          -10.23838          -3.054513          -2.375647          -40.58987
       -11.80000          -10.00284          -4.939065          -2.463144          -41.06123
       -11.78000          -9.839886          -6.800587          -2.558274          -41.54904
       -11.76000          -9.741955          -8.648598          -2.662140          -42.05460
       -11.74000          -9.703474          -10.49195          -2.776043          -42.57930
       -11.72000          -9.720463          -12.33943          -2.901561          -43.12478
       -11.70000          -9.790307          -14.19949          -3.040600          -43.69282
       -11.68000          -9.911580          -16.08046          -3.195484          -44.28545
       -11.66000          -10.08392          -17.99071          -3.369062          -44.90496
       -11.64000          -10.30799          -19.93872          -3.564867          -45.55388
       -11.62000          -10.58539          -21.93320          -3.787301          -46.23508
       -11.60000          -10.91876          -23.98325          -4.041908          -46.95169
       -11.58000          -11.31176          -26.09847          -4.335732          -47.70714
       -11.56000          -11.76923          -28.28905          -4.677794          -48.50510
       -11.54000          -12.29726          -30.56598          -5.079768          -49.34923
       -11.52000          -12.90343          -32.94125          -5.556880          -50.24292
       -11.50000          -13.59706          -35.42790          -6.129154          -51.18861
       -11.48000          -14.38953          -38.04037          -6.823079          -52.18650
       -11.46000          -15.29473          -40.79467          -7.673779          -53.23230
       -11.44000          -16.32959          -43.70855          -8.727619          -54.31312
       -11.42000          -17.51483          -46.80201          -10.04479          -55.40017
       -11.40000          -18.87597          -50.09747          -11.70022          -56.43607
       -11.38000          -20.44433          -53.61980          -13.77802          -57.31412
       -11.36000          -22.25902          -57.39728          -16.35011          -57.84892
       -11.34000          -24.36886          -61.46132          -19.41847          -57.74677
       -11.32000          -26.83541          -65.84691          -22.80176          -56.61571
       -11.30000          -29.73687          -70.59224          -25.99223          -54.10192
       -11.28000          -33.17341          -75.73824          -28.15220          -50.21568
       -11.26000          -37.27448          -81.32670          -28.49990          -45.63350
       -11.24000          -42.20868          -87.39695          -26.91557          -41.47733
       -11.22000          -48.19730          -93.97884          -24.05016          -38.60124
       -11.20000          -55.53228          -101.0801          -20.78400          -37.18456
       -11.18000          -64.59972          -108.6634          -17.72986          -36.93584
       -11.16000          -75.90864          -116.6053          -15.14739          -37.45219
       -11.14000          -90.12196          -124.6243          -13.07213          -38.40832
       -11.12000          -108.0780          -132.1548          -11.44417          -39.59125
       -11.10000          -130.7638          -138.1331          -10.17977          -40.87604
       -11.08000          -159.1366          -140.6662          -9.200854          -42.19448
       -11.06000          -193.5921          -136.6444          -8.443459          -43.51187
       -11.04000          -232.8102          -121.6317          -7.858015          -44.81238
       -11.02000          -272.0269          -90.91254          -7.406979          -46.09058
       -11.00000          -302.1368          -42.77368          -7.062229          -47.34635
       -10.98000          -312.7513           17.20258          -6.802659          -48.58254
       -10.96000          -299.4396           76.38022          -6.612461          -49.80330
       -10.94000          -267.6635           122.6487          -6.479771          -51.01327
       -10.92000          -227.9931           151.3905          -6.395693          -52.21729
       -10.90000          -189.0881           164.8940          -6.353599          -53.42008
       -10.88000          -155.2397           167.9572          -6.348628          -54.62621
       -10.86000          -127.4982           164.8851          -6.377346          -55.84008
       -10.84000          -105.3663           158.6385          -6.437501          -57.06584
       -10.82000          -87.86645           151.0066          -6.527897          -58.30745
       -10.80000          -74.01755           142.9901          -6.648312          -59.56854
       -10.78000          -62.99274           135.1150          -6.799492          -60.85242
       -10.76000          -54.14209           127.6369          -6.983172          -62.16170
       -10.74000          -46.96960           120.6628          -7.202034          -63.49796
       -10.72000          -41.10094           114.2200          -7.459463          -64.86099
       -10.70000          -36.25391           108.2954          -7.758655          -66.24773
       -10.68000          -32.21497           102.8564          -8.100431          -67.65137
       -10.66000          -28.82137           97.86246          -8.479137          -69.06207
       -10.64000          -25.94856           93.27178          -8.877919          -70.47210
       -10.62000          -23.49986           89.04352          -9.269800          -71.88729
       -10.60000          -21.40003           85.13987          -9.631150          -73.33557
       -10.58000          -19.59004           81.52648          -9.959565          -74.85873
       -10.56000          -18.02341           78.17251          -10.27640          -76.49240
       -10.54000          -16.66343           75.05052          -10.61335          -78.25446
       -10.52000          -15.48122           72.13631          -10.99884          -80.14747
       -10.50000          -14.45430           69.40864          -11.45237          -82.16742
       -10.48000          -13.56566           66.84921          -11.98582          -84.31104
       -10.46000          -12.80307           64.44282          -12.60744          -86.57921
       -10.44000          -12.15868           62.17774          -13.32540          -88.97738
       -10.42000          -11.62858           60.04689          -14.14981          -91.51480
       -10.40000          -11.21190           58.04974          -15.09405          -94.20383
       -10.38000          -10.90834           56.19526          -16.17569          -97.05946
       -10.36000          -10.71216           54.50517          -17.41745          -100.0991
       -10.34000          -10.60023           53.01342          -18.84851          -103.3422
       -10.32000          -10.51600           51.75323          -20.50626          -106.8106
       -10.30000          -10.36596           50.72314          -22.43878          -110.5278
       -10.28000          -10.05668           49.85128          -24.70781          -114.5184
       -10.26000          -9.561888           49.01140          -27.39384          -118.8065
       -10.24000          -8.942926           48.09879          -30.60201          -123.4132
       -10.22000          -8.294100           47.08191          -34.47061          -128.3506
       -10.20000          -7.684364           45.98532          -39.18203          -133.6118
       -10.18000          -7.143641           44.84962          -44.97631          -139.1519
       -10.16000          -6.675831           43.70845          -52.16504          -144.8552
       -10.14000          -6.273394           42.58336          -61.13867          -150.4771
       -10.12000          -5.925806           41.48620          -72.34776          -155.5498
       -10.10000          -5.623103           40.42250          -86.21268          -159.2464
       -10.08000          -5.356965           39.39411          -102.8788          -160.2428
       -10.06000          -5.120770           38.40088          -121.7307          -156.7473
       -10.04000          -4.909352           37.44164          -140.7912          -147.0660
       -10.02000          -4.718677           36.51470          -156.7333          -130.9302
       -10.00000          -4.545589           35.61822          -166.4821          -110.6056
       -9.980000          -4.387585           34.75032          -169.4643          -89.76437
       -9.960000          -4.242667           33.90919          -167.4607          -70.67854
       -9.939999          -4.109206           33.09304          -161.9820          -53.42008
       -9.919999          -3.985884           32.30033          -152.9064          -37.90982
       -9.899999          -3.871594           31.52952          -139.9600          -25.50837
       -9.879999          -3.765408           30.77920          -124.4253          -18.00230
       -9.859999          -3.666543           30.04807          -108.6462          -15.87135
       -9.839999          -3.574328           29.33494          -94.52581          -18.16461
       -9.819999          -3.488186           28.63869          -82.91691          -23.44591
       -9.799999          -3.407613           27.95828          -73.89050          -30.49859
       -9.780000          -3.332170           27.29274          -67.16451          -38.51548
       -9.759999          -3.261469           26.64119          -62.37602          -47.03387
       -9.740000          -3.195168           26.00277          -59.20051          -55.82137
       -9.719999          -3.132963           25.37671          -57.38822          -64.78500
       -9.700000          -3.074581           24.76225          -56.76663          -73.91273
       -9.679999          -3.019777           24.15872          -57.23300          -83.23881
       -9.660000          -2.968333           23.56545          -58.74673          -92.82430
       -9.639999          -2.920051           22.98183          -61.32472          -102.7461
       -9.620000          -2.874749           22.40728          -65.04130          -113.0901
       -9.599999          -2.832269           21.84124          -70.03298          -123.9459
       -9.580000          -2.792459           21.28319          -76.50895          -135.4010
       -9.559999          -2.755185           20.73260          -84.76845          -147.5309
       -9.539999          -2.720329           20.18904          -95.22491          -160.3802
       -9.520000          -2.687775           19.65205          -108.4430          -173.9334
       -9.499999          -2.657423           19.12119          -125.1829          -188.0553
       -9.480000          -2.629180           18.59602          -146.4532          -202.3880
       -9.459999          -2.602961           18.07617          -173.5521          -216.1674
       -9.440000          -2.578687           17.56124          -208.0494          -227.9142
       -9.419999          -2.556290           17.05086          -251.5772          -234.9476
       -9.400000          -2.535703           16.54468          -305.1591          -232.7585
       -9.379999          -2.516869           16.04234          -367.6404          -214.6095
       -9.360000          -2.499735           15.54351          -433.0179          -172.5309
       -9.339999          -2.484252           15.04787          -488.1629          -101.6145
       -9.320000          -2.470377           14.55509          -515.5674          -7.260734
       -9.299999          -2.458073           14.06487          -504.0753           92.12088
       -9.280000          -2.447302           13.57690          -458.4172           174.8610
       -9.259999          -2.438036           13.09089          -394.9499           229.5464
       -9.240000          -2.430248           12.60654          -329.5396           257.4800
       -9.219999          -2.423913           12.12356          -271.1662           266.0730
       -9.199999          -2.419012           11.64167          -222.7153           262.8762
       -9.179999          -2.415531           11.16060          -183.8466           253.3689
       -9.159999          -2.413454           10.68006          -153.0574           240.9558
       -9.139999          -2.412772           10.19979          -128.6959           227.5764
       -9.119999          -2.413479           9.719507          -109.3238           214.2672
       -9.099999          -2.415570           9.238944          -93.79489           201.5445
       -9.079999          -2.419045           8.757824          -81.22922           189.6357
       -9.059999          -2.423906           8.275875          -70.96128           178.6132
       -9.039999          -2.430159           7.792828          -62.48930           168.4683
       -9.020000          -2.437812           7.308403          -55.43386           159.1532
       -8.999999          -2.446877           6.822333          -49.50626           150.6035
       -8.980000          -2.457368           6.334333          -44.48509           142.7496
       -8.959999          -2.469303           5.844123          -40.19908           135.5234
       -8.940000          -2.482703           5.351420          -36.51450           128.8614
       -8.919999          -2.497592           4.855930          -33.32606           122.7054
       -8.900000          -2.513998           4.357364          -30.55007           117.0031
       -8.880000          -2.531953           3.855412          -28.11951           111.7082
       -8.860000          -2.551492           3.349781          -25.98023           106.7792
       -8.839999          -2.572654           2.840125          -24.08809           102.1794
       -8.819999          -2.595482           2.326164          -22.40714           97.87704
       -8.799999          -2.620022           1.807560          -20.90748           93.84325
       -8.779999          -2.646330           1.283965          -19.56434           90.05281
       -8.759999          -2.674460           0.755014          -18.35704           86.48328
       -8.739999          -2.704477           0.220371          -17.26816           83.11472
       -8.719999          -2.736446          -0.320355          -16.28302           79.92937
       -8.699999          -2.770443          -0.867548          -15.38911           76.91146
       -8.679999          -2.806547          -1.421599          -14.57578           74.04676
       -8.659999          -2.844849          -1.982944          -13.83387           71.32263
       -8.639999          -2.885439          -2.552006          -13.15552           68.72763
       -8.620000          -2.928424          -3.129242          -12.53391           66.25148
       -8.599999          -2.973915          -3.715128          -11.96312           63.88491
       -8.580000          -3.022033          -4.310161          -11.43801           61.61950
       -8.559999          -3.072911          -4.914855          -10.95406           59.44764
       -8.540000          -3.126693          -5.529755          -10.50732           57.36240
       -8.520000          -3.183537          -6.155442          -10.09432           55.35744
       -8.500000          -3.243613          -6.792521          -9.711965           53.42701
       -8.479999          -3.307110          -7.441640          -9.357537           51.56575
       -8.459999          -3.374227          -8.103432          -9.028649           49.76894
       -8.439999          -3.445191          -8.778635          -8.723136           48.03209
       -8.419999          -3.520245          -9.468002          -8.439083           46.35105
       -8.399999          -3.599658          -10.17233          -8.174778           44.72206
       -8.379999          -3.683727          -10.89247          -7.928688           43.14161
       -8.360000          -3.772776          -11.62933          -7.699434           41.60644
       -8.339999          -3.867166          -12.38389          -7.485781           40.11355
       -8.320000          -3.967295          -13.15718          -7.286612           38.66012
       -8.299999          -4.073607          -13.95030          -7.100925           37.24353
       -8.280000          -4.186595          -14.76445          -6.927813           35.86135
       -8.259999          -4.306808          -15.60092          -6.766451           34.51128
       -8.240000          -4.434864          -16.46108          -6.616101           33.19117
       -8.219999          -4.571457          -17.34641          -6.476086           31.89899
       -8.200000          -4.717370          -18.25855          -6.345800           30.63285
       -8.179999          -4.873489          -19.19925          -6.224690           29.39095
       -8.160000          -5.040822          -20.17040          -6.112254           28.17160
       -8.139999          -5.220522          -21.17409          -6.008038           26.97317
       -8.120000          -5.413908          -22.21258          -5.911628           25.79413
       -8.099999          -5.622518          -23.28842          -5.822652           24.63298
       -8.079999          -5.848098          -24.40423          -5.740777           23.48842
       -8.059999          -6.092721          -25.56307          -5.665699           22.35906
       -8.039999          -6.358804          -26.76826          -5.597143           21.24362
       -8.020000          -6.649203          -28.02349          -5.534861           20.14086
       -7.999999          -6.967312          -29.33279          -5.478638           19.04961
       -7.979999          -7.317198          -30.70069          -5.428276           17.96870
       -7.959999          -7.703766          -32.13221          -5.383609           16.89702
       -7.939999          -8.132979          -33.63293          -5.344484           15.83350
       -7.920000          -8.612162          -35.20902          -5.310775           14.77705
       -7.900000          -9.150376          -36.86733          -5.282372           13.72664
       -7.880000          -9.758957          -38.61533          -5.259188           12.68126
       -7.860000          -10.45219          -40.46118          -5.241150           11.63990
       -7.840000          -11.24832          -42.41343          -5.228210           10.60156
       -7.820000          -12.17078          -44.48077          -5.220331           9.565259
       -7.800000          -13.25006          -46.67122          -5.217500           8.530027
       -7.780000          -14.52606          -48.99073          -5.219719           7.494873
       -7.760000          -16.05137          -51.44049          -5.227007           6.458822
       -7.739999          -17.89545          -54.01225          -5.239407           5.420843
       -7.719999          -20.14901          -56.67897          -5.256974           4.380024
       -7.699999          -22.92843          -59.37996          -5.279789           3.335323
       -7.679999          -26.37448          -61.99419          -5.307950           2.285712
       -7.659999          -30.63579          -64.29845          -5.341581           1.230151
       -7.639999          -35.81344          -65.91253          -5.380824           0.167575
       -7.619999          -41.82899          -66.26053          -5.425853          -0.903110
       -7.599999          -48.19407          -64.64555          -5.476864          -1.983038
       -7.579999          -53.79747          -60.60557          -5.534085          -3.073365
       -7.559999          -57.10340          -54.54840          -5.597776          -4.175315
       -7.539999          -57.06270          -48.04646          -5.668232          -5.290126
       -7.520000          -54.00493          -43.04514          -5.745790          -6.419128
       -7.500000          -49.34782          -40.64318          -5.830832          -7.563684
       -7.480000          -44.53094          -40.79869          -5.923788          -8.725247
       -7.460000          -40.40150          -42.88862          -6.025145          -9.905356
       -7.440000          -37.25653          -46.25534          -6.135456          -11.10560
       -7.420000          -35.09496          -50.42141          -6.255348          -12.32769
       -7.400000          -33.80812          -55.09754          -6.385535          -13.57347
       -7.379999          -33.27437          -60.13041          -6.526834          -14.84494
       -7.359999          -33.39483          -65.45187          -6.680163          -16.14406
       -7.339999          -34.10254          -71.04562          -6.846592          -17.47316
       -7.319999          -35.36224          -76.92595          -7.027351          -18.83463
       -7.299999          -37.16795          -83.12601          -7.223855          -20.23113
       -7.279999          -39.54128          -89.69164          -7.437758          -21.66547
       -7.259999          -42.53141          -96.67785          -7.670992          -23.14079
       -7.239999          -46.21738          -104.1470          -7.925828          -24.66043
       -7.219999          -50.71269          -112.1674          -8.204964          -26.22813
       -7.199999          -56.17293          -120.8111          -8.511612          -27.84794
       -7.179999          -62.80729          -130.1508          -8.849635          -29.52432
       -7.159999          -70.89507          -140.2534          -9.223731          -31.26219
       -7.139999          -80.80836          -151.1674          -9.639636          -33.06694
       -7.119999          -93.04358          -162.8995          -10.10444          -34.94445
       -7.099999          -108.2622          -175.3725          -10.62700          -36.90114
       -7.079999          -127.3408          -188.3488          -11.21846          -38.94385
       -7.059999          -151.4210          -201.2928          -11.89303          -41.07971
       -7.039999          -181.9296          -213.1346          -12.66898          -43.31585
       -7.020000          -220.4873          -221.8815          -13.57004          -45.65865
       -6.999999          -268.5175          -224.0541          -14.62731          -48.11258
       -6.979999          -326.1819          -214.1054          -15.88153          -50.67743
       -6.959999          -390.2657          -184.5303          -17.38629          -53.34462
       -6.939999          -451.3849          -128.2998          -19.21100          -56.08890
       -6.919999          -493.6085          -44.97653          -21.44237          -58.85515
       -6.899999          -501.4201           53.15702          -24.17992          -61.53597
       -6.879999          -471.5299           144.5864          -27.51467          -63.93890
       -6.859999          -415.8495           212.1604          -31.47048          -65.75108
       -6.839999          -351.4643           251.6719          -35.88279          -66.53947
       -6.819999          -290.6365           268.4317          -40.23187          -65.88048
       -6.799999          -238.7311           270.2463          -43.59711          -63.70867
       -6.779999          -196.6107           263.5379          -45.03140          -60.70234
       -6.760000          -163.1765           252.5517          -44.26848          -58.13819
       -6.740000          -136.8152           239.7955          -41.96993          -57.10225
       -6.720000          -116.0034           226.6489          -39.16803          -57.92248
       -6.700000          -99.48802           213.8228          -36.64038          -60.32777
       -6.680000          -86.29643           201.6509          -34.75096          -63.87099
       -6.660000          -75.69299           190.2608          -33.58374          -68.17937
       -6.639999          -67.12730           179.6701          -33.09898          -73.01298
       -6.619999          -60.19127           169.8422          -33.22541          -78.24069
       -6.599999          -54.58272           160.7133          -33.90014          -83.80530
       -6.579999          -50.08167           152.2113          -35.08208          -89.69490
       -6.559999          -46.53262           144.2634          -36.75444          -95.92551
       -6.539999          -43.83296           136.8032          -38.92422          -102.5310
       -6.519999          -41.92630           129.7755          -41.62171          -109.5575
       -6.500000          -40.79950           123.1425          -44.90115          -117.0609
       -6.480000          -40.48219           116.8948          -48.84314          -125.1052
       -6.460000          -41.04672           111.0693          -53.55907          -133.7614
       -6.440000          -42.60252           105.7806          -59.19825          -143.1070
       -6.420000          -45.27155           101.2691          -65.95817          -153.2237
       -6.400000          -49.11664           97.96242          -74.09928          -164.1930
       -6.379999          -53.97950           96.51084          -83.96593          -176.0886
       -6.359999          -59.21135           97.67577          -96.01299          -188.9586
       -6.339999          -63.46191           101.8838          -110.8463          -202.7984
       -6.319999          -64.99204           108.5107          -129.2709          -217.4956
       -6.299999          -62.76134           115.6724          -152.3501          -232.7316
       -6.279999          -57.31419           121.2464          -181.4614          -247.8092
       -6.259999          -50.28131           124.1720          -218.3083          -261.3538
       -6.239999          -43.18851           124.6202          -264.7779          -270.8303
       -6.219999          -36.87399           123.3243          -322.3955          -271.8660
       -6.199999          -31.59114           121.0107          -390.9304          -257.6236
       -6.179999          -27.29017           118.1988          -465.7271          -219.2041
       -6.159999          -23.81600           115.2070          -534.5774          -149.1081
       -6.139999          -21.00249           112.2133          -578.2983          -48.85100
       -6.119999          -18.70595           109.3103          -580.3074           64.94295
       -6.099999          -16.81193           106.5413          -539.8443           167.0028
       -6.079999          -15.23230           103.9225          -472.6636           239.5731
       -6.059999          -13.90008           101.4559          -398.2254           280.0629
       -6.039999          -12.76446           99.13619          -329.4102           295.5755
       -6.020000          -11.78670           96.95466          -271.3756           295.0782
       -6.000000          -10.93705           94.90141          -224.5958           285.6067
       -5.980000          -10.19249           92.96638          -187.6275           271.7054
       -5.960000          -9.534993           91.13992          -158.5949           256.0220
       -5.940000          -8.950314           89.41297          -135.7841           239.9946
       -5.920000          -8.427095           87.77740          -117.8060           224.3525
       -5.900000          -7.956180           86.22570          -103.5925           209.4259
       -5.880000          -7.530131           84.75115          -92.34309           195.3278
       -5.860000          -7.142838           83.34774          -83.46676           182.0557
       -5.840000          -6.789255           82.00999          -76.53349           169.5489
       -5.820000          -6.465172           80.73302          -71.23775           157.7196
       -5.800000          -6.167056           79.51243          -67.37287           146.4707
       -5.780000          -5.891918           78.34423          -64.81469           135.7064
       -5.760000          -5.637212           77.22483          -63.51297           125.3403
       -5.740000          -5.400756           76.15095          -63.48914           115.3042
       -5.719998          -5.180660           75.11957          -64.84057           105.5602
       -5.699999          -4.975332           74.12813          -67.74874           96.12682
       -5.679999          -4.783337           73.17413          -72.49038           87.11450
       -5.659999          -4.603435           72.25526          -79.44024           78.79825
       -5.639999          -4.434540           71.36950          -89.04244           71.73212
       -5.619999          -4.275691           70.51496          -101.6935           66.91682
       -5.599999          -4.126036           69.68986          -117.4297           65.97550
       -5.579999          -3.984819           68.89262          -135.2952           71.13075
       -5.559999          -3.851366           68.12174          -152.5008           84.49674
       -5.539999          -3.725070           67.37583          -164.2719           106.2635
       -5.519999          -3.605389           66.65365          -165.8777           132.8197
       -5.499999          -3.491835           65.95397          -156.1924           157.7028
       -5.479999          -3.383962           65.27573          -138.6998           175.6582
       -5.459999          -3.281372           64.61787          -118.5367           185.3110
       -5.439999          -3.183701           63.97945          -99.43712           188.2033
       -5.419999          -3.090617           63.35956          -83.05329           186.6745
       -5.399999          -3.001818           62.75737          -69.66145           182.6641
       -5.379999          -2.917030           62.17207          -58.93306           177.4573
       -5.359999          -2.835995           61.60295          -50.37790           171.8127
       -5.340000          -2.758484           61.04930          -43.53057           166.1461
       -5.320000          -2.684284           60.51047          -38.00653           160.6703
       -5.300000          -2.613193           59.98586          -33.50583           155.4835
       -5.280000          -2.545036           59.47485          -29.79994           150.6214
       -5.260000          -2.479639           58.97693          -26.71611           146.0873
       -5.240000          -2.416848           58.49159          -24.12367           141.8675
       -5.220000          -2.356520           58.01830          -21.92326           137.9413
       -5.200000          -2.298521           57.55663          -20.03872           134.2850
       -5.180000          -2.242724           57.10615          -18.41121           130.8752
       -5.160000          -2.189015           56.66642          -16.99482           127.6894
       -5.140000          -2.137285           56.23705          -15.75337           124.7068
       -5.120000          -2.087432           55.81769          -14.65814           121.9088
       -5.100000          -2.039364           55.40794          -13.68606           119.2785
       -5.080000          -1.992990           55.00750          -12.81851           116.8006
       -5.060000          -1.948229           54.61604          -12.04027           114.4620
       -5.040000          -1.905003           54.23325          -11.33886           112.2504
       -5.020000          -1.863240           53.85884          -10.70392           110.1554
       -4.999999          -1.822866           53.49250          -10.12678           108.1671
       -4.979999          -1.783826           53.13403          -9.600309           106.2774
       -4.959999          -1.746054           52.78315          -9.118344           104.4784
       -4.939999          -1.709495           52.43959          -8.675688           102.7634
       -4.919999          -1.674094           52.10315          -8.267915           101.1262
       -4.899999          -1.639800           51.77360          -7.891213           99.56113
       -4.879999          -1.606566           51.45071          -7.542300           98.06328
       -4.859999          -1.574347           51.13430          -7.218331           96.62806
       -4.839999          -1.543099           50.82416          -6.916826           95.25130
       -4.819999          -1.512783           50.52011          -6.635620           93.92931
       -4.799999          -1.483358           50.22197          -6.372808           92.65857
       -4.779999          -1.454792           49.92958          -6.126717           91.43600
       -4.759999          -1.427046           49.64275          -5.895863           90.25870
       -4.739999          -1.400091           49.36135          -5.678930           89.12403
       -4.719999          -1.373893           49.08521          -5.474750           88.02958
       -4.699999          -1.348424           48.81418          -5.282275           86.97307
       -4.679999          -1.323656           48.54814          -5.100571           85.95244
       -4.659999          -1.299562           48.28693          -4.928796           84.96578
       -4.639999          -1.276117           48.03044          -4.766195           84.01134
       -4.619999          -1.253297           47.77853          -4.612082           83.08746
       -4.599999          -1.231078           47.53109          -4.465842           82.19257
       -4.579999          -1.209438           47.28800          -4.326911           81.32530
       -4.559999          -1.188357           47.04915          -4.194783           80.48430
       -4.539999          -1.167815           46.81442          -4.068992           79.66833
       -4.520000          -1.147792           46.58372          -3.949113           78.87625
       -4.500000          -1.128270           46.35696          -3.834760           78.10696
       -4.480000          -1.109232           46.13400          -3.725580           77.35941
       -4.460000          -1.090661           45.91479          -3.621243           76.63271
       -4.440000          -1.072542           45.69922          -3.521452           75.92592
       -4.420000          -1.054858           45.48720          -3.425931           75.23820
       -4.400000          -1.037596           45.27865          -3.334425           74.56878
       -4.380000          -1.020741           45.07350          -3.246699           73.91689
       -4.360000          -1.004280           44.87165          -3.162537           73.28185
       -4.340000          -0.988200           44.67304          -3.081734           72.66295
       -4.320000          -0.972490           44.47758          -3.004107           72.05959
       -4.300000          -0.957136           44.28521          -2.929480           71.47117
       -4.280000          -0.942127           44.09586          -2.857691           70.89714
       -4.259999          -0.927453           43.90944          -2.788586           70.33690
       -4.239999          -0.913104           43.72592          -2.722036           69.79005
       -4.219999          -0.899069           43.54522          -2.657903           69.25603
       -4.199999          -0.885339           43.36729          -2.596065           68.73444
       -4.179999          -0.871904           43.19206          -2.536408           68.22478
       -4.159999          -0.858756           43.01947          -2.478825           67.72668
       -4.139999          -0.845886           42.84947          -2.423215           67.23975
       -4.119999          -0.833285           42.68200          -2.369485           66.76357
       -4.099999          -0.820946           42.51701          -2.317545           66.29782
       -4.079999          -0.808861           42.35445          -2.267312           65.84216
       -4.059999          -0.797022           42.19428          -2.218709           65.39626
       -4.039999          -0.785423           42.03643          -2.171662           64.95979
       -4.019999          -0.774057           41.88087          -2.126100           64.53247
       -3.999999          -0.762916           41.72755          -2.081959           64.11401
       -3.979999          -0.751996           41.57642          -2.039176           63.70414
       -3.959999          -0.741288           41.42745          -1.997695           63.30261
       -3.939999          -0.730789           41.28058          -1.957458           62.90916
       -3.919999          -0.720491           41.13580          -1.918414           62.52354
       -3.899999          -0.710390           40.99304          -1.880514           62.14555
       -3.879999          -0.700479           40.85226          -1.843711           61.77494
       -3.859999          -0.690755           40.71345          -1.807960           61.41151
       -3.839999          -0.681211           40.57656          -1.773219           61.05508
       -3.820000          -0.671843           40.44154          -1.739448           60.70541
       -3.800000          -0.662647           40.30838          -1.706610           60.36235
       -3.780000          -0.653618           40.17703          -1.674668           60.02571
       -3.760000          -0.644751           40.04746          -1.643587           59.69531
       -3.740000          -0.636042           39.91965          -1.613336           59.37099
       -3.720000          -0.627488           39.79355          -1.583883           59.05259
       -3.700000          -0.619084           39.66914          -1.555198           58.73995
       -3.680000          -0.610827           39.54641          -1.527254           58.43294
       -3.660000          -0.602712           39.42528          -1.500023           58.13140
       -3.640000          -0.594737           39.30577          -1.473480           57.83519
       -3.620000          -0.586897           39.18784          -1.447601           57.54418
       -3.600000          -0.579190           39.07144          -1.422361           57.25824
       -3.580000          -0.571611           38.95658          -1.397738           56.97725
       -3.560000          -0.564159           38.84322          -1.373712           56.70110
       -3.539999          -0.556829           38.73131          -1.350260           56.42963
       -3.519999          -0.549620           38.62086          -1.327366           56.16280
       -3.499999          -0.542527           38.51185          -1.305009           55.90046
       -3.479999          -0.535549           38.40423          -1.283172           55.64249
       -3.459999          -0.528682           38.29799          -1.261837           55.38882
       -3.439999          -0.521924           38.19312          -1.240988           55.13935
       -3.419999          -0.515273           38.08957          -1.220610           54.89397
       -3.399999          -0.508725           37.98734          -1.200686           54.65260
       -3.379999          -0.502279           37.88641          -1.181203           54.41515
       -3.359999          -0.495932           37.78676          -1.162147           54.18151
       -3.339999          -0.489681           37.68835          -1.143504           53.95164
       -3.319999          -0.483526           37.59119          -1.125262           53.72543
       -3.299999          -0.477462           37.49524          -1.107407           53.50280
       -3.279999          -0.471489           37.40051          -1.089929           53.28370
       -3.259999          -0.465605           37.30693          -1.072816           53.06803
       -3.239999          -0.459806           37.21455          -1.056056           52.85573
       -3.219999          -0.454093           37.12329          -1.039640           52.64673
       -3.199999          -0.448461           37.03318          -1.023556           52.44096
       -3.179999          -0.442911           36.94417          -1.007796           52.23837
       -3.159999          -0.437439           36.85627          -0.992350           52.03888
       -3.139999          -0.432045           36.76945          -0.977209           51.84243
       -3.120000          -0.426726           36.68369          -0.962363           51.64896
       -3.100000          -0.421481           36.59900          -0.947806           51.45843
       -3.080000          -0.416308           36.51534          -0.933527           51.27076
       -3.060000          -0.411207           36.43271          -0.919520           51.08589
       -3.040000          -0.406174           36.35109          -0.905778           50.90382
       -3.020000          -0.401210           36.27047          -0.892292           50.72443
       -3.000000          -0.396311           36.19082          -0.879055           50.54771
       -2.980000          -0.391478           36.11215          -0.866062           50.37361
       -2.960000          -0.386708           36.03444          -0.853304           50.20206
       -2.940000          -0.382001           35.95768          -0.840776           50.03303
       -2.920000          -0.377355           35.88184          -0.828472           49.86649
       -2.900000          -0.372768           35.80693          -0.816386           49.70236
       -2.880000          -0.368240           35.73293          -0.804511           49.54062
       -2.860000          -0.363769           35.65982          -0.792843           49.38123
       -2.840000          -0.359354           35.58760          -0.781376           49.22414
       -2.820000          -0.354995           35.51626          -0.770105           49.06932
       -2.799999          -0.350689           35.44577          -0.759023           48.91671
       -2.779999          -0.346436           35.37615          -0.748129           48.76631
       -2.759999          -0.342234           35.30737          -0.737415           48.61805
       -2.739999          -0.338084           35.23943          -0.726878           48.47192
       -2.719999          -0.333983           35.17230          -0.716513           48.32787
       -2.699999          -0.329931           35.10599          -0.706315           48.18587
       -2.679999          -0.325927           35.04048          -0.696281           48.04588
       -2.659999          -0.321969           34.97577          -0.686407           47.90788
       -2.639999          -0.318057           34.91185          -0.676688           47.77182
       -2.619999          -0.314190           34.84870          -0.667121           47.63770
       -2.599999          -0.310368           34.78631          -0.657702           47.50546
       -2.579999          -0.306588           34.72469          -0.648428           47.37509
       -2.559999          -0.302851           34.66381          -0.639295           47.24656
       -2.539999          -0.299156           34.60369          -0.630299           47.11982
       -2.519999          -0.295501           34.54429          -0.621437           46.99487
       -2.499999          -0.291886           34.48561          -0.612707           46.87169
       -2.479999          -0.288310           34.42766          -0.604105           46.75021
       -2.459999          -0.284773           34.37042          -0.595628           46.63044
       -2.439999          -0.281274           34.31388          -0.587272           46.51236
       -2.419999          -0.277811           34.25803          -0.579036           46.39592
       -2.400000          -0.274385           34.20287          -0.570917           46.28112
       -2.380000          -0.270995           34.14839          -0.562911           46.16793
       -2.360000          -0.267639           34.09459          -0.555017           46.05633
       -2.340000          -0.264318           34.04145          -0.547231           45.94629
       -2.320000          -0.261030           33.98897          -0.539551           45.83778
       -2.300000          -0.257776           33.93715          -0.531975           45.73080
       -2.280000          -0.254553           33.88597          -0.524500           45.62532
       -2.260000          -0.251363           33.83543          -0.517125           45.52132
       -2.240000          -0.248203           33.78553          -0.509846           45.41879
       -2.220000          -0.245074           33.73624          -0.502662           45.31769
       -2.200000          -0.241976           33.68759          -0.495570           45.21803
       -2.180000          -0.238906           33.63955          -0.488569           45.11976
       -2.160000          -0.235866           33.59212          -0.481657           45.02289
       -2.140000          -0.232854           33.54530          -0.474831           44.92738
       -2.120000          -0.229869           33.49907          -0.468090           44.83324
       -2.100000          -0.226912           33.45344          -0.461431           44.74042
       -2.080000          -0.223982           33.40840          -0.454854           44.64893
       -2.059999          -0.221078           33.36393          -0.448355           44.55873
       -2.039999          -0.218200           33.32005          -0.441934           44.46984
       -2.019999          -0.215348           33.27674          -0.435589           44.38220
       -1.999999          -0.212520           33.23399          -0.429318           44.29584
       -1.979999          -0.209716           33.19181          -0.423120           44.21071
       -1.959999          -0.206937           33.15018          -0.416992           44.12682
       -1.939999          -0.204181           33.10912          -0.410934           44.04415
       -1.919999          -0.201448           33.06859          -0.404944           43.96267
       -1.899999          -0.198738           33.02860          -0.399020           43.88239
       -1.879999          -0.196050           32.98916          -0.393162           43.80327
       -1.859999          -0.193384           32.95025          -0.387367           43.72533
       -1.839999          -0.190739           32.91188          -0.381634           43.64853
       -1.819999          -0.188116           32.87403          -0.375963           43.57288
       -1.799999          -0.185512           32.83670          -0.370351           43.49834
       -1.779999          -0.182930           32.79989          -0.364797           43.42493
       -1.759999          -0.180367           32.76359          -0.359301           43.35261
       -1.739999          -0.177823           32.72781          -0.353860           43.28139
       -1.719999          -0.175299           32.69253          -0.348474           43.21125
       -1.699999          -0.172793           32.65775          -0.343142           43.14217
       -1.679999          -0.170306           32.62347          -0.337862           43.07416
       -1.659999          -0.167837           32.58969          -0.332634           43.00720
       -1.640000          -0.165386           32.55639          -0.327455           42.94127
       -1.620000          -0.162952           32.52359          -0.322326           42.87638
       -1.600000          -0.160535           32.49126          -0.317245           42.81250
       -1.580000          -0.158135           32.45943          -0.312211           42.74964
       -1.560000          -0.155751           32.42807          -0.307223           42.68777
       -1.540000          -0.153383           32.39719          -0.302280           42.62689
       -1.520000          -0.151031           32.36677          -0.297381           42.56701
       -1.500000          -0.148695           32.33682          -0.292526           42.50808
       -1.480000          -0.146373           32.30733          -0.287712           42.45013
       -1.460000          -0.144067           32.27832          -0.282940           42.39312
       -1.440000          -0.141775           32.24976          -0.278208           42.33708
       -1.420000          -0.139498           32.22165          -0.273516           42.28197
       -1.400000          -0.137234           32.19400          -0.268862           42.22780
       -1.380000          -0.134985           32.16681          -0.264247           42.17456
       -1.360000          -0.132748           32.14005          -0.259668           42.12223
       -1.339999          -0.130525           32.11375          -0.255125           42.07080
       -1.319999          -0.128315           32.08788          -0.250618           42.02029
       -1.299999          -0.126118           32.06247          -0.246145           41.97067
       -1.279999          -0.123933           32.03748          -0.241707           41.92194
       -1.259999          -0.121760           32.01293          -0.237301           41.87409
       -1.239999          -0.119599           31.98881          -0.232928           41.82713
       -1.219999          -0.117450           31.96513          -0.228586           41.78102
       -1.199999          -0.115312           31.94187          -0.224275           41.73580
       -1.179999          -0.113185           31.91904          -0.219994           41.69142
       -1.159999          -0.111069           31.89664          -0.215743           41.64789
       -1.139999          -0.108964           31.87465          -0.211520           41.60521
       -1.119999          -0.106869           31.85308          -0.207326           41.56337
       -1.099999          -0.104785           31.83193          -0.203158           41.52237
       -1.079999          -0.102710           31.81120          -0.199018           41.48220
       -1.059999          -0.100645           31.79088          -0.194904           41.44285
       -1.039999          -0.098590           31.77098          -0.190815           41.40432
       -1.019999          -0.096544           31.75148          -0.186752           41.36661
       -0.999999          -0.094507           31.73239          -0.182712           41.32969
       -0.979999          -0.092480           31.71370          -0.178696           41.29360
       -0.960000          -0.090460           31.69542          -0.174703           41.25829
       -0.940000          -0.088450           31.67755          -0.170733           41.22379
       -0.920000          -0.086447           31.66007          -0.166784           41.19007
       -0.900000          -0.084453           31.64299          -0.162857           41.15714
       -0.880000          -0.082466           31.62632          -0.158951           41.12500
       -0.860000          -0.080487           31.61003          -0.155064           41.09364
       -0.840000          -0.078515           31.59415          -0.151198           41.06304
       -0.820000          -0.076551           31.57865          -0.147350           41.03322
       -0.800000          -0.074594           31.56355          -0.143521           41.00415
       -0.780000          -0.072643           31.54883          -0.139710           40.97587
       -0.760000          -0.070699           31.53451          -0.135916           40.94833
       -0.740000          -0.068762           31.52058          -0.132140           40.92156
       -0.720000          -0.066831           31.50703          -0.128379           40.89553
       -0.700000          -0.064906           31.49387          -0.124635           40.87026
       -0.680000          -0.062987           31.48108          -0.120906           40.84572
       -0.660000          -0.061074           31.46869          -0.117192           40.82194
       -0.640000          -0.059166           31.45668          -0.113493           40.79890
       -0.620000          -0.057264           31.44504          -0.109808           40.77660
       -0.599999          -0.055366           31.43378          -0.106135           40.75502
       -0.579999          -0.053474           31.42291          -0.102476           40.73418
       -0.559999          -0.051586           31.41241          -0.098830           40.71407
       -0.539999          -0.049704           31.40229          -0.095196           40.69469
       -0.519999          -0.047825           31.39254          -0.091573           40.67603
       -0.499999          -0.045951           31.38317          -0.087961           40.65809
       -0.479999          -0.044081           31.37418          -0.084360           40.64089
       -0.459999          -0.042215           31.36555          -0.080770           40.62439
       -0.439999          -0.040353           31.35730          -0.077189           40.60860
       -0.419999          -0.038494           31.34942          -0.073617           40.59353
       -0.399999          -0.036639           31.34192          -0.070054           40.57919
       -0.379999          -0.034787           31.33478          -0.066500           40.56554
       -0.359999          -0.032938           31.32801          -0.062953           40.55262
       -0.339999          -0.031092           31.32162          -0.059415           40.54039
       -0.319999          -0.029249           31.31558          -0.055883           40.52887
       -0.299999          -0.027409           31.30992          -0.052358           40.51805
       -0.279999          -0.025570           31.30463          -0.048839           40.50795
       -0.259999          -0.023735           31.29970          -0.045327           40.49854
       -0.239999          -0.021901           31.29514          -0.041819           40.48983
       -0.220000          -0.020069           31.29095          -0.038317           40.48183
       -0.200000          -0.018239           31.28712          -0.034819           40.47452
       -0.180000          -0.016410           31.28366          -0.031325           40.46791
       -0.160000          -0.014583           31.28056          -0.027835           40.46201
       -0.140000          -0.012758           31.27783          -0.024349           40.45679
       -0.120000          -0.010933           31.27546          -0.020865           40.45228
       -0.100000          -0.009109           31.27346          -0.017384           40.44845
       -0.080000          -0.007287           31.27182          -0.013904           40.44533
       -0.060000          -0.005464           31.27055          -0.010427           40.44289
       -0.040000          -0.003643           31.26964          -0.006951           40.44116
       -0.020000          -0.001821           31.26909          -0.003475           40.44012
        0.000000           0.000000           31.26891           0.000000           40.43977
        0.020000           0.001821           31.26909           0.003475           40.44012
        0.040000           0.003643           31.26964           0.006951           40.44116
        0.060000           0.005464           31.27055           0.010427           40.44290
        0.080000           0.007287           31.27182           0.013904           40.44533
        0.100000           0.009109           31.27346           0.017384           40.44845
        0.120001           0.010933           31.27546           0.020865           40.45228
        0.140001           0.012758           31.27783           0.024349           40.45679
        0.160001           0.014584           31.28056           0.027836           40.46201
        0.180001           0.016411           31.28366           0.031326           40.46792
        0.200001           0.018239           31.28712           0.034819           40.47452
        0.220001           0.020069           31.29095           0.038317           40.48183
        0.240001           0.021901           31.29514           0.041820           40.48983
        0.260001           0.023735           31.29970           0.045327           40.49854
        0.280001           0.025571           31.30463           0.048840           40.50795
        0.300001           0.027409           31.30992           0.052358           40.51806
        0.320001           0.029249           31.31559           0.055883           40.52887
        0.340001           0.031093           31.32162           0.059415           40.54039
        0.360001           0.032938           31.32801           0.062954           40.55262
        0.380001           0.034787           31.33478           0.066500           40.56554
        0.400001           0.036639           31.34192           0.070054           40.57919
        0.420001           0.038494           31.34943           0.073617           40.59354
        0.440001           0.040353           31.35730           0.077189           40.60861
        0.460001           0.042215           31.36555           0.080770           40.62439
        0.480001           0.044081           31.37418           0.084361           40.64088
        0.500001           0.045951           31.38317           0.087962           40.65809
        0.520000           0.047825           31.39254           0.091573           40.67603
        0.540000           0.049704           31.40229           0.095196           40.69469
        0.560000           0.051587           31.41241           0.098830           40.71407
        0.580000           0.053474           31.42291           0.102477           40.73418
        0.600000           0.055366           31.43378           0.106136           40.75502
        0.620000           0.057264           31.44504           0.109808           40.77660
        0.640000           0.059166           31.45668           0.113493           40.79890
        0.660000           0.061074           31.46869           0.117192           40.82194
        0.680000           0.062987           31.48108           0.120906           40.84572
        0.700000           0.064906           31.49387           0.124635           40.87026
        0.720000           0.066831           31.50703           0.128379           40.89553
        0.740000           0.068762           31.52058           0.132140           40.92156
        0.760000           0.070699           31.53451           0.135916           40.94834
        0.780000           0.072643           31.54883           0.139710           40.97586
        0.800000           0.074594           31.56355           0.143521           41.00416
        0.820000           0.076551           31.57865           0.147350           41.03322
        0.840000           0.078515           31.59415           0.151198           41.06304
        0.860001           0.080487           31.61003           0.155065           41.09364
        0.880001           0.082466           31.62632           0.158951           41.12501
        0.900001           0.084453           31.64300           0.162857           41.15714
        0.920001           0.086447           31.66007           0.166785           41.19008
        0.940001           0.088450           31.67755           0.170733           41.22379
        0.960001           0.090460           31.69543           0.174704           41.25830
        0.980001           0.092480           31.71370           0.178696           41.29361
        1.000001           0.094508           31.73239           0.182712           41.32970
        1.020001           0.096544           31.75148           0.186752           41.36661
        1.040001           0.098590           31.77098           0.190816           41.40432
        1.060001           0.100646           31.79088           0.194904           41.44285
        1.080001           0.102710           31.81120           0.199019           41.48220
        1.100001           0.104785           31.83193           0.203159           41.52238
        1.120001           0.106869           31.85308           0.207326           41.56337
        1.140001           0.108964           31.87465           0.211520           41.60521
        1.160001           0.111069           31.89664           0.215743           41.64789
        1.180001           0.113185           31.91904           0.219994           41.69142
        1.200001           0.115312           31.94187           0.224275           41.73580
        1.220001           0.117450           31.96513           0.228586           41.78102
        1.240000           0.119599           31.98882           0.232928           41.82713
        1.260000           0.121760           32.01294           0.237301           41.87409
        1.280000           0.123933           32.03748           0.241707           41.92194
        1.300000           0.126118           32.06247           0.246146           41.97067
        1.320000           0.128315           32.08789           0.250618           42.02029
        1.340000           0.130525           32.11375           0.255125           42.07080
        1.360000           0.132748           32.14006           0.259668           42.12223
        1.380000           0.134985           32.16681           0.264247           42.17456
        1.400000           0.137234           32.19400           0.268862           42.22780
        1.420000           0.139498           32.22166           0.273516           42.28197
        1.440000           0.141775           32.24976           0.278208           42.33709
        1.460000           0.144067           32.27832           0.282940           42.39313
        1.480000           0.146373           32.30733           0.287712           42.45013
        1.500000           0.148695           32.33682           0.292526           42.50808
        1.520000           0.151031           32.36676           0.297381           42.56700
        1.540000           0.153383           32.39719           0.302280           42.62689
        1.560000           0.155751           32.42807           0.307223           42.68776
        1.580001           0.158135           32.45943           0.312211           42.74964
        1.600001           0.160535           32.49126           0.317245           42.81250
        1.620001           0.162952           32.52359           0.322327           42.87638
        1.640001           0.165386           32.55639           0.327456           42.94128
        1.660001           0.167837           32.58969           0.332634           43.00720
        1.680001           0.170306           32.62347           0.337863           43.07416
        1.700001           0.172794           32.65775           0.343142           43.14218
        1.720001           0.175299           32.69253           0.348475           43.21125
        1.740001           0.177823           32.72781           0.353860           43.28140
        1.760001           0.180367           32.76360           0.359301           43.35262
        1.780001           0.182930           32.79989           0.364797           43.42493
        1.800001           0.185513           32.83670           0.370351           43.49835
        1.820001           0.188116           32.87403           0.375963           43.57288
        1.840001           0.190739           32.91188           0.381635           43.64854
        1.860001           0.193384           32.95026           0.387367           43.72534
        1.880001           0.196050           32.98917           0.393162           43.80328
        1.900001           0.198738           33.02861           0.399021           43.88240
        1.920001           0.201448           33.06859           0.404944           43.96268
        1.940001           0.204181           33.10912           0.410935           44.04416
        1.960001           0.206937           33.15018           0.416993           44.12683
        1.980000           0.209717           33.19181           0.423120           44.21072
        2.000000           0.212520           33.23399           0.429318           44.29584
        2.020000           0.215348           33.27674           0.435589           44.38221
        2.040000           0.218200           33.32005           0.441935           44.46984
        2.060000           0.221078           33.36394           0.448355           44.55873
        2.080000           0.223982           33.40840           0.454854           44.64893
        2.100000           0.226912           33.45344           0.461431           44.74042
        2.120000           0.229869           33.49907           0.468090           44.83323
        2.140000           0.232854           33.54530           0.474831           44.92738
        2.160000           0.235866           33.59212           0.481657           45.02289
        2.180000           0.238906           33.63955           0.488569           45.11976
        2.200000           0.241976           33.68759           0.495570           45.21803
        2.220000           0.245074           33.73624           0.502662           45.31769
        2.240000           0.248203           33.78552           0.509846           45.41879
        2.260000           0.251363           33.83543           0.517125           45.52132
        2.280000           0.254553           33.88597           0.524500           45.62532
        2.300000           0.257776           33.93715           0.531975           45.73080
        2.320001           0.261031           33.98898           0.539552           45.83779
        2.340001           0.264318           34.04145           0.547231           45.94629
        2.360001           0.267640           34.09459           0.555017           46.05634
        2.380001           0.270995           34.14840           0.562912           46.16794
        2.400001           0.274386           34.20287           0.570918           46.28114
        2.420001           0.277812           34.25804           0.579037           46.39594
        2.440001           0.281274           34.31388           0.587273           46.51237
        2.460001           0.284774           34.37043           0.595628           46.63045
        2.480001           0.288311           34.42767           0.604105           46.75022
        2.500001           0.291886           34.48562           0.612708           46.87169
        2.520001           0.295501           34.54429           0.621438           46.99487
        2.540001           0.299156           34.60369           0.630300           47.11983
        2.560001           0.302851           34.66382           0.639295           47.24656
        2.580001           0.306588           34.72469           0.648429           47.37510
        2.600001           0.310368           34.78632           0.657703           47.50548
        2.620001           0.314191           34.84870           0.667122           47.63771
        2.640001           0.318057           34.91185           0.676689           47.77184
        2.660001           0.321969           34.97578           0.686408           47.90788
        2.680001           0.325927           35.04049           0.696282           48.04588
        2.700001           0.329931           35.10600           0.706316           48.18588
        2.720001           0.333983           35.17231           0.716513           48.32788
        2.740000           0.338084           35.23943           0.726879           48.47193
        2.760000           0.342235           35.30738           0.737416           48.61806
        2.780000           0.346436           35.37616           0.748129           48.76633
        2.800000           0.350689           35.44578           0.759024           48.91672
        2.820000           0.354995           35.51626           0.770105           49.06932
        2.840000           0.359354           35.58760           0.781376           49.22414
        2.860000           0.363769           35.65982           0.792843           49.38123
        2.880000           0.368240           35.73293           0.804511           49.54062
        2.900000           0.372768           35.80693           0.816386           49.70236
        2.920000           0.377355           35.88184           0.828472           49.86649
        2.940000           0.382001           35.95767           0.840776           50.03303
        2.960000           0.386708           36.03444           0.853304           50.20206
        2.980000           0.391478           36.11215           0.866062           50.37360
        3.000000           0.396311           36.19083           0.879055           50.54772
        3.020000           0.401210           36.27047           0.892292           50.72443
        3.040001           0.406175           36.35110           0.905779           50.90382
        3.060001           0.411207           36.43272           0.919522           51.08591
        3.080001           0.416309           36.51535           0.933528           51.27077
        3.100001           0.421481           36.59901           0.947807           51.45844
        3.120001           0.426726           36.68371           0.962365           51.64898
        3.140001           0.432045           36.76945           0.977210           51.84244
        3.160001           0.437440           36.85628           0.992351           52.03889
        3.180001           0.442911           36.94418           1.007797           52.23839
        3.200001           0.448462           37.03318           1.023558           52.44098
        3.220001           0.454093           37.12331           1.039641           52.64675
        3.240001           0.459807           37.21456           1.056057           52.85575
        3.260001           0.465605           37.30695           1.072817           53.06805
        3.280001           0.471490           37.40052           1.089931           53.28371
        3.300001           0.477463           37.49525           1.107409           53.50282
        3.320001           0.483526           37.59120           1.125263           53.72545
        3.340001           0.489682           37.68837           1.143506           53.95166
        3.360001           0.495932           37.78677           1.162149           54.18153
        3.380001           0.502280           37.88642           1.181205           54.41516
        3.400001           0.508726           37.98735           1.200688           54.65262
        3.420001           0.515273           38.08958           1.220611           54.89400
        3.440001           0.521925           38.19312           1.240990           55.13937
        3.460000           0.528683           38.29800           1.261839           55.38885
        3.480000           0.535550           38.40424           1.283174           55.64251
        3.500000           0.542528           38.51185           1.305011           55.90047
        3.520000           0.549620           38.62087           1.327368           56.16283
        3.540000           0.556830           38.73132           1.350262           56.42966
        3.560000           0.564159           38.84322           1.373712           56.70109
        3.580000           0.571611           38.95658           1.397738           56.97725
        3.600000           0.579190           39.07144           1.422361           57.25824
        3.620000           0.586897           39.18783           1.447601           57.54418
        3.640000           0.594737           39.30577           1.473480           57.83519
        3.660000           0.602712           39.42528           1.500023           58.13140
        3.680000           0.610827           39.54641           1.527254           58.43294
        3.700000           0.619084           39.66914           1.555198           58.73995
        3.720000           0.627488           39.79355           1.583883           59.05259
        3.740000           0.636042           39.91965           1.613336           59.37099
        3.760000           0.644751           40.04747           1.643587           59.69531
        3.780001           0.653618           40.17704           1.674670           60.02573
        3.800001           0.662648           40.30840           1.706612           60.36237
        3.820001           0.671844           40.44156           1.739451           60.70544
        3.840001           0.681212           40.57656           1.773222           61.05510
        3.860001           0.690755           40.71346           1.807963           61.41153
        3.880001           0.700480           40.85227           1.843714           61.77496
        3.900001           0.710391           40.99305           1.880518           62.14557
        3.920001           0.720492           41.13581           1.918417           62.52357
        3.940001           0.730790           41.28059           1.957461           62.90918
        3.960001           0.741289           41.42746           1.997698           63.30265
        3.980001           0.751996           41.57643           2.039180           63.70417
        4.000001           0.762917           41.72756           2.081962           64.11406
        4.020001           0.774058           41.88088           2.126103           64.53251
        4.040001           0.785424           42.03645           2.171665           64.95983
        4.060001           0.797023           42.19429           2.218713           65.39629
        4.080000           0.808862           42.35447           2.267316           65.84220
        4.100000           0.820947           42.51702           2.317549           66.29787
        4.120000           0.833286           42.68201           2.369489           66.76363
        4.140000           0.845887           42.84948           2.423220           67.23978
        4.160000           0.858757           43.01949           2.478830           67.72672
        4.180000           0.871906           43.19207           2.536413           68.22482
        4.200000           0.885340           43.36731           2.596070           68.73447
        4.220000           0.899070           43.54524           2.657908           69.25607
        4.240000           0.913105           43.72593           2.722041           69.79009
        4.260000           0.927454           43.90945           2.788592           70.33694
        4.280000           0.942127           44.09586           2.857691           70.89714
        4.300000           0.957136           44.28521           2.929480           71.47117
        4.320000           0.972490           44.47758           3.004107           72.05959
        4.340000           0.988200           44.67304           3.081734           72.66295
        4.360000           1.004280           44.87165           3.162537           73.28185
        4.380000           1.020741           45.07351           3.246699           73.91689
        4.400000           1.037596           45.27865           3.334425           74.56877
        4.420000           1.054858           45.48721           3.425931           75.23820
        4.440000           1.072542           45.69922           3.521452           75.92592
        4.460000           1.090661           45.91479           3.621243           76.63271
        4.480000           1.109232           46.13400           3.725580           77.35941
        4.500000           1.128270           46.35695           3.834760           78.10696
        4.520001           1.147794           46.58374           3.949123           78.87630
        4.540001           1.167816           46.81444           4.069001           79.66841
        4.560001           1.188359           47.04917           4.194794           80.48437
        4.580001           1.209440           47.28802           4.326922           81.32537
        4.600001           1.231080           47.53112           4.465854           82.19265
        4.620001           1.253299           47.77855           4.612094           83.08753
        4.640001           1.276119           48.03047           4.766207           84.01141
        4.660001           1.299564           48.28695           4.928809           84.96587
        4.680001           1.323659           48.54817           5.100585           85.95251
        4.700001           1.348426           48.81420           5.282290           86.97314
        4.720001           1.373895           49.08523           5.474766           88.02966
        4.740001           1.400093           49.36137           5.678948           89.12413
        4.760001           1.427048           49.64278           5.895882           90.25880
        4.780001           1.454794           49.92961           6.126736           91.43611
        4.800001           1.483361           50.22200           6.372829           92.65868
        4.820001           1.512785           50.52014           6.635643           93.92939
        4.840001           1.543101           50.82419           6.916850           95.25143
        4.860001           1.574350           51.13432           7.218357           96.62817
        4.880001           1.606569           51.45074           7.542326           98.06340
        4.900001           1.639803           51.77362           7.891242           99.56126
        4.920001           1.674096           52.10318           8.267945           101.1263
        4.940001           1.709498           52.43962           8.675723           102.7636
        4.960001           1.746057           52.78318           9.118382           104.4786
        4.980000           1.783829           53.13407           9.600353           106.2775
        5.000000           1.822870           53.49253           10.12683           108.1672
        5.020000           1.863240           53.85884           10.70392           110.1554
        5.040000           1.905003           54.23325           11.33886           112.2504
        5.060000           1.948229           54.61604           12.04027           114.4620
        5.080000           1.992990           55.00750           12.81851           116.8006
        5.100000           2.039364           55.40794           13.68606           119.2784
        5.120000           2.087432           55.81769           14.65814           121.9088
        5.140000           2.137285           56.23705           15.75337           124.7068
        5.160000           2.189015           56.66642           16.99482           127.6894
        5.180000           2.242724           57.10615           18.41121           130.8752
        5.200000           2.298521           57.55662           20.03872           134.2850
        5.220000           2.356520           58.01830           21.92326           137.9413
        5.240001           2.416854           58.49162           24.12387           141.8678
        5.260001           2.479644           58.97697           26.71634           146.0876
        5.280001           2.545041           59.47488           29.80021           150.6218
        5.300001           2.613199           59.98589           33.50615           155.4839
        5.320001           2.684289           60.51051           38.00694           160.6707
        5.340001           2.758491           61.04934           43.53106           166.1466
        5.360001           2.836002           61.60300           50.37852           171.8132
        5.380001           2.917036           62.17212           58.93382           177.4577
        5.400001           3.001826           62.75741           69.66242           182.6645
        5.420001           3.090625           63.35961           83.05448           186.6747
        5.440001           3.183709           63.97951           99.43856           188.2032
        5.460001           3.281380           64.61793           118.5383           185.3105
        5.480001           3.383970           65.27579           138.7014           175.6571
        5.500000           3.491843           65.95403           156.1935           157.7010
        5.520000           3.605399           66.65369           165.8780           132.8175
        5.540000           3.725080           67.37591           164.2713           106.2614
        5.560000           3.851377           68.12180           152.4996           84.49528
        5.580000           3.984831           68.89268           135.2938           71.13002
        5.600000           4.126048           69.68993           117.4283           65.97536
        5.620000           4.275703           70.51504           101.6923           66.91708
        5.640000           4.434553           71.36957           89.04154           71.73261
        5.660000           4.603449           72.25533           79.43957           78.79890
        5.680000           4.783352           73.17420           72.48991           87.11520
        5.700000           4.975348           74.12820           67.74844           96.12758
        5.720000           5.180678           75.11964           64.84040           105.5609
        5.740000           5.400756           76.15095           63.48914           115.3042
        5.760000           5.637212           77.22483           63.51297           125.3403
        5.780000           5.891917           78.34423           64.81469           135.7064
        5.800000           6.167056           79.51243           67.37287           146.4707
        5.820000           6.465172           80.73302           71.23775           157.7196
        5.840000           6.789255           82.00999           76.53349           169.5489
        5.860000           7.142837           83.34774           83.46675           182.0557
        5.880000           7.530131           84.75115           92.34309           195.3278
        5.900000           7.956180           86.22570           103.5925           209.4259
        5.920000           8.427095           87.77740           117.8060           224.3525
        5.940000           8.950314           89.41297           135.7841           239.9946
        5.960000           9.534993           91.13991           158.5949           256.0220
        5.980001           10.19255           92.96653           187.6301           271.7067
        6.000001           10.93712           94.90158           224.5992           285.6077
        6.020001           11.78677           96.95482           271.3799           295.0787
        6.040001           12.76454           99.13637           329.4155           295.5750
        6.060001           13.90018           101.4561           398.2314           280.0607
        6.080001           15.23242           103.9227           472.6696           239.5686
        6.100001           16.81207           106.5415           539.8491           166.9956
        6.120001           18.70612           109.3106           580.3091           64.93387
        6.140001           21.00269           112.2136           578.2964          -48.86000
        6.160001           23.81626           115.2072           534.5726          -149.1151
        6.180001           27.29048           118.1991           465.7210          -219.2084
        6.200001           31.59152           121.0110           390.9244          -257.6255
        6.220001           36.87447           123.3245           322.3904          -271.8664
        6.240001           43.18906           124.6202           264.7737          -270.8298
        6.260001           50.28190           124.1718           218.3050          -261.3528
        6.280001           57.31473           121.2461           181.4587          -247.8080
        6.300001           62.76168           115.6719           152.3479          -232.7304
        6.320001           64.99206           108.5101           129.2693          -217.4944
        6.340001           63.46165           101.8833           110.8450          -202.7973
        6.360001           59.21094           97.67556           96.01191          -188.9575
        6.380001           53.97908           96.51086           83.96506          -176.0876
        6.400000           49.11645           97.96251           74.09891          -164.1925
        6.420000           45.27141           101.2693           65.95787          -153.2233
        6.440000           42.60242           105.7808           59.19799          -143.1066
        6.460000           41.04669           111.0695           53.55887          -133.7610
        6.480000           40.48219           116.8950           48.84296          -125.1048
        6.500000           40.79952           123.1428           44.90101          -117.0606
        6.520000           41.92637           129.7758           41.62159          -109.5572
        6.540000           43.83305           136.8036           38.92413          -102.5307
        6.560000           46.53275           144.2637           36.75436          -95.92525
        6.580000           50.08184           152.2116           35.08202          -89.69465
        6.600000           54.58292           160.7137           33.90010          -83.80505
        6.620000           60.19152           169.8425           33.22539          -78.24048
        6.640000           67.12759           179.6705           33.09898          -73.01278
        6.660000           75.69299           190.2608           33.58374          -68.17938
        6.680000           86.29643           201.6509           34.75096          -63.87099
        6.700001           99.48921           213.8238           36.64056          -60.32752
        6.720001           116.0049           226.6499           39.16825          -57.92234
        6.740001           136.8171           239.7966           41.97015          -57.10225
        6.760001           163.1789           252.5526           44.26861          -58.13833
        6.780001           196.6137           263.5387           45.03138          -60.70259
        6.800001           238.7349           270.2466           43.59690          -63.70890
        6.820001           290.6411           268.4310           40.23154          -65.88058
        6.840001           351.4695           251.6698           35.88242          -66.53947
        6.860001           415.8546           212.1560           31.47013          -65.75098
        6.880001           471.5336           144.5798           27.51438          -63.93873
        6.900001           501.4211           53.14903           24.17967          -61.53576
        6.920001           493.6063          -44.98415           21.44217          -58.85494
        6.940001           451.3804          -128.3055           19.21084          -56.08867
        6.960001           390.2604          -184.5337           17.38616          -53.34441
        6.980000           326.1769          -214.1069           15.88142          -50.67723
        7.000000           268.5132          -224.0543           14.62722          -48.11238
        7.020000           220.4855          -221.8812           13.57001          -45.65855
        7.040000           181.9282          -213.1342           12.66895          -43.31576
        7.060000           151.4199          -201.2923           11.89300          -41.07963
        7.080000           127.3399          -188.3482           11.21844          -38.94375
        7.100000           108.2615          -175.3721           10.62698          -36.90106
        7.120000           93.04303          -162.8990           10.10442          -34.94439
        7.140000           80.80792          -151.1669           9.639617          -33.06687
        7.160000           70.89470          -140.2530           9.223715          -31.26213
        7.180000           62.80699          -130.1504           8.849620          -29.52425
        7.200000           56.17269          -120.8107           8.511597          -27.84787
        7.220000           50.71249          -112.1671           8.204953          -26.22806
        7.240002           46.21690          -104.1461           7.925796          -24.66024
        7.260000           42.53128          -96.67755           7.670983          -23.14072
        7.280002           39.54094          -89.69082           7.437731          -21.66530
        7.300000           37.16787          -83.12573           7.223847          -20.23108
        7.320002           35.36206          -76.92522           7.027328          -18.83447
        7.340000           34.10250          -71.04539           6.846586          -17.47310
        7.360002           33.39478          -65.45119           6.680144          -16.14390
        7.380000           33.27437          -60.13020           6.526828          -14.84488
        7.400002           33.80819          -55.09715           6.385524          -13.57337
        7.420000           35.09496          -50.42141           6.255348          -12.32769
        7.440001           37.25673          -46.25503           6.135446          -11.10549
        7.460000           40.40150          -42.88862           6.025146          -9.905356
        7.480001           44.53131          -40.79859           5.923779          -8.725161
        7.500000           49.34783          -40.64317           5.830832          -7.563684
        7.520001           54.00527          -43.04546           5.745785          -6.419038
        7.539999           57.06270          -48.04646           5.668233          -5.290131
        7.560001           57.10326          -54.54893           5.597770          -4.175218
        7.579999           53.79747          -60.60557           5.534085          -3.073362
        7.600001           48.19357          -64.64577           5.476860          -1.982957
        7.619999           41.82899          -66.26052           5.425853          -0.903115
        7.640001           35.81298          -65.91245           5.380821           0.167661
        7.659999           30.63579          -64.29845           5.341581           1.230152
        7.680001           26.37417          -61.99398           5.307949           2.285799
        7.699999           22.92843          -59.37997           5.279788           3.335325
        7.720001           20.14881          -56.67875           5.256972           4.380107
        7.739999           17.89545          -54.01225           5.239407           5.420842
        7.760001           16.05131          -51.44040           5.227007           6.458866
        7.779999           14.52611          -48.99082           5.219719           7.494833
        7.800001           13.25001          -46.67112           5.217501           8.530069
        7.820002           12.17066          -44.48051           5.220333           9.565389
        7.840000           11.24828          -42.41336           5.228210           10.60160
        7.860002           10.45211          -40.46095           5.241152           11.64003
        7.880000           9.758930          -38.61528           5.259188           12.68130
        7.900002           9.150310          -36.86713           5.282376           13.72677
        7.920000           8.612141          -35.20896           5.310777           14.77709
        7.940002           8.132925          -33.63274           5.344489           15.83363
        7.960000           7.703750          -32.13214           5.383612           16.89707
        7.980001           7.317154          -30.70052           5.428282           17.96884
        8.000000           6.967300          -29.33273           5.478639           19.04966
        8.020001           6.649167          -28.02332           5.534868           20.14099
        8.040000           6.358794          -26.76822           5.597144           21.24366
        8.060001           6.092690          -25.56293           5.665707           22.35919
        8.080000           5.848088          -24.40418           5.740780           23.48846
        8.100001           5.622491          -23.28828           5.822662           24.63313
        8.120000           5.413908          -22.21258           5.911628           25.79413
        8.140001           5.220507          -21.17401           6.008044           26.97327
        8.160000           5.040822          -20.17040           6.112254           28.17160
        8.180001           4.873476          -19.19917           6.224700           29.39106
        8.200000           4.717370          -18.25856           6.345800           30.63285
        8.220001           4.571446          -17.34635           6.476099           31.89910
        8.240000           4.434864          -16.46108           6.616101           33.19117
        8.260001           4.306797          -15.60085           6.766465           34.51138
        8.280000           4.186595          -14.76445           6.927813           35.86135
        8.300001           4.073598          -13.95024           7.100941           37.24366
        8.320000           3.967295          -13.15718           7.286612           38.66012
        8.340001           3.867157          -12.38383           7.485798           40.11367
        8.360000           3.772776          -11.62933           7.699433           41.60644
        8.380001           3.683720          -10.89241           7.928707           43.14173
        8.399999           3.599658          -10.17233           8.174778           44.72205
        8.420001           3.520239          -9.467942           8.439105           46.35118
        8.439999           3.445191          -8.778633           8.723136           48.03209
        8.460001           3.374222          -8.103378           9.028674           49.76908
        8.479999           3.307109          -7.441640           9.357538           51.56575
        8.500001           3.243610          -6.792496           9.711980           53.42709
        8.519999           3.183539          -6.155469           10.09430           55.35736
        8.540000           3.126691          -5.529731           10.50734           57.36248
        8.560002           3.072905          -4.914781           10.95412           59.44791
        8.580000           3.022031          -4.310136           11.43803           61.61959
        8.600002           2.973909          -3.715058           11.96319           63.88519
        8.620000           2.928422          -3.129218           12.53393           66.25158
        8.640002           2.885434          -2.551936           13.15560           68.72794
        8.660000           2.844847          -1.982923           13.83390           71.32274
        8.680001           2.806543          -1.421536           14.57587           74.04711
        8.700000           2.770442          -0.867527           15.38914           76.91156
        8.720001           2.736442          -0.320285           16.28313           79.92976
        8.740000           2.704475           0.220391           17.26821           83.11485
        8.760001           2.674457           0.755078           18.35718           86.48370
        8.780000           2.646329           1.283982           19.56440           90.05297
        8.800001           2.620019           1.807624           20.90765           93.84372
        8.820000           2.595481           2.326185           22.40721           97.87720
        8.840001           2.572652           2.840188           24.08831           102.1800
        8.860000           2.551492           3.349781           25.98023           106.7792
        8.880001           2.531952           3.855455           28.11969           111.7086
        8.900000           2.513998           4.357364           30.55007           117.0031
        8.920001           2.497591           4.855970           33.32630           122.7059
        8.940000           2.482703           5.351420           36.51450           128.8614
        8.960001           2.469302           5.844164           40.19940           135.5240
        8.980000           2.457368           6.334333           44.48509           142.7496
        9.000001           2.446876           6.822374           49.50670           150.6041
        9.020000           2.437813           7.308403           55.43386           159.1532
        9.040001           2.430158           7.792867           62.48992           168.4691
        9.059999           2.423907           8.275874           70.96128           178.6132
        9.080001           2.419044           8.757860           81.23013           189.6367
        9.099999           2.415570           9.238943           93.79489           201.5445
        9.120001           2.413478           9.719544           109.3252           214.2683
        9.139999           2.412772           10.19979           128.6959           227.5764
        9.160001           2.413454           10.68010           153.0596           240.9569
        9.179999           2.415531           11.16060           183.8466           253.3689
        9.200001           2.419013           11.64170           222.7188           262.8768
        9.219999           2.423913           12.12354           271.1640           266.0731
        9.240001           2.430248           12.60656           329.5422           257.4793
        9.260002           2.438037           13.09095           394.9580           229.5415
        9.280001           2.447302           13.57692           458.4196           174.8582
        9.300002           2.458074           14.06494           504.0791           92.10942
        9.320001           2.470378           14.55512           515.5671          -7.264818
        9.340002           2.484254           15.04793           488.1575          -101.6248
        9.360001           2.499736           15.54354           433.0153          -172.5331
        9.380002           2.516871           16.04240           367.6324          -214.6130
        9.400001           2.535703           16.54470           305.1568          -232.7589
        9.420002           2.556292           17.05092           251.5712          -234.9472
        9.440000           2.578688           17.56126           208.0478          -227.9138
        9.460002           2.602964           18.07623           173.5484          -216.1658
        9.480000           2.629181           18.59604           146.4522          -202.3874
        9.500002           2.657427           19.12125           125.1806          -188.0536
        9.520000           2.687776           19.65207           108.4424          -173.9328
        9.540002           2.720333           20.18911           95.22349          -160.3786
        9.559999           2.755187           20.73262           84.76808          -147.5304
        9.580001           2.792462           21.28323           76.50835          -135.4001
        9.599999           2.832269           21.84124           70.03298          -123.9459
        9.620001           2.874753           22.40733           65.04094          -113.0892
        9.639999           2.920051           22.98183           61.32472          -102.7461
        9.660001           2.968337           23.56550           58.74657          -92.82352
        9.679999           3.019777           24.15872           57.23300          -83.23881
        9.700001           3.074585           24.76231           56.76663          -73.91198
        9.719999           3.132963           25.37671           57.38822          -64.78501
        9.740001           3.195174           26.00283           59.20071          -55.82065
        9.759999           3.261469           26.64119           62.37603          -47.03388
        9.780001           3.332176           27.29279           67.16497          -38.51481
        9.799999           3.407613           27.95828           73.89048          -30.49859
        9.820001           3.488193           28.63874           82.91775          -23.44539
        9.839999           3.574329           29.33494           94.52581          -18.16461
        9.860001           3.666550           30.04813           108.6474          -15.87133
        9.879999           3.765408           30.77920           124.4253          -18.00229
        9.900001           3.871603           31.52958           139.9612          -25.50920
        9.919999           3.985884           32.30033           152.9064          -37.90982
        9.940001           4.109216           33.09311           161.9826          -53.42142
        9.959999           4.242661           33.90915           167.4605          -70.67780
        9.980000           4.387592           34.75036           169.4642          -89.76518
        10.00000           4.545609           35.61833           166.4813          -110.6082
        10.02000           4.718685           36.51474           156.7328          -130.9309
        10.04000           4.909377           37.44174           140.7890          -147.0676
        10.06000           5.120780           38.40092           121.7299          -156.7476
        10.08000           5.356995           39.39423           102.8766          -160.2429
        10.10000           5.623115           40.42254           86.21206          -159.2463
        10.12000           5.925845           41.48633           72.34623          -155.5493
        10.14000           6.273410           42.58341           61.13826          -150.4769
        10.16000           6.675882           43.70858           52.16407          -144.8545
        10.18000           7.143661           44.84968           44.97605          -139.1516
        10.20000           7.684434           45.98547           39.18139          -133.6111
        10.22000           8.294124           47.08196           34.47043          -128.3504
        10.24000           8.943005           48.09890           30.60158          -123.4126
        10.26000           9.561912           49.01143           27.39372          -118.8063
        10.28000           10.05673           49.85139           24.70751          -114.5179
        10.30000           10.36596           50.72318           22.43869          -110.5277
        10.32000           10.51601           51.75332           20.50612          -106.8103
        10.34000           10.60023           53.01343           18.84851          -103.3422
        10.36000           10.71217           54.50530           17.41734          -100.0988
        10.38000           10.90834           56.19526           16.17569          -97.05947
        10.40000           11.21193           58.04989           15.09397          -94.20361
        10.42000           11.62858           60.04689           14.14981          -91.51480
        10.44000           12.15873           62.17791           13.32534          -88.97717
        10.46000           12.80307           64.44282           12.60744          -86.57920
        10.48000           13.56573           66.84942           11.98577          -84.31084
        10.50000           14.45430           69.40865           11.45237          -82.16742
        10.52000           15.48131           72.13654           10.99881          -80.14732
        10.54000           16.66343           75.05052           10.61335          -78.25446
        10.56000           18.02353           78.17276           10.27638          -76.49227
        10.58000           19.59004           81.52648           9.959566          -74.85873
        10.60000           21.40018           85.14017           9.631122          -73.33545
        10.62000           23.49986           89.04352           9.269800          -71.88729
        10.64000           25.94878           93.27214           8.877887          -70.47197
        10.66000           28.82137           97.86246           8.479138          -69.06208
        10.68000           32.21512           102.8567           8.100416          -67.65131
        10.70000           36.25373           108.2952           7.758667          -66.24779
        10.72000           41.10115           114.2203           7.459453          -64.86094
        10.74000           46.97039           120.6636           7.202006          -63.49780
        10.76000           54.14241           127.6373           6.983164          -62.16164
        10.78000           62.99395           135.1159           6.799471          -60.85226
        10.80000           74.01805           142.9904           6.648307          -59.56849
        10.82000           87.86832           151.0076           6.527885          -58.30729
        10.84000           105.3671           158.6388           6.437498          -57.06579
        10.86000           127.5012           164.8857           6.377339          -55.83993
        10.88000           155.2410           167.9572           6.348628          -54.62616
        10.90000           189.0926           164.8930           6.353600          -53.41993
        10.92000           227.9947           151.3896           6.395695          -52.21724
        10.94000           267.6681           122.6442           6.479785          -51.01313
        10.96000           299.4406           76.37802           6.612468          -49.80324
        10.98000           312.7515           17.19504           6.802686          -48.58239
        11.00000           302.1360          -42.77594           7.062240          -47.34630
        11.02000           272.0225          -90.91736           7.407026          -46.09042
        11.04000           232.8102          -121.6317           7.858015          -44.81238
        11.06000           193.5891          -136.6452           8.443513          -43.51176
        11.08000           159.1366          -140.6662           9.200855          -42.19448
        11.10000           130.7617          -138.1328           10.17986          -40.87594
        11.12000           108.0780          -132.1548           11.44417          -39.59125
        11.14000           90.12064          -124.6236           13.07228          -38.40823
        11.16000           75.90863          -116.6053           15.14739          -37.45219
        11.18000           64.59891          -108.6628           17.73009          -36.93582
        11.20000           55.53228          -101.0801           20.78401          -37.18456
        11.22000           48.19676          -93.97828           24.05042          -38.60142
        11.24000           42.20868          -87.39695           26.91557          -41.47733
        11.26000           37.27411          -81.32623           28.49995          -45.63386
        11.28000           33.17341          -75.73824           28.15220          -50.21568
        11.30000           29.73661          -70.59184           25.99200          -54.10219
        11.32000           26.83541          -65.84691           22.80176          -56.61572
        11.34000           24.36868          -61.46097           19.41820          -57.74681
        11.36000           22.25902          -57.39728           16.35011          -57.84892
        11.38000           20.44419          -53.61952           13.77784          -57.31407
        11.40000           18.87597          -50.09748           11.70022          -56.43607
        11.42000           17.51478          -46.80188           10.04473          -55.40011
        11.44000           16.32964          -43.70867           8.727668          -54.31317
        11.46000           15.29469          -40.79454           7.673740          -53.23225
        11.48000           14.38943          -38.04004           6.822987          -52.18637
        11.50000           13.59703          -35.42779           6.129128          -51.18857
        11.52000           12.90335          -32.94094           5.556816          -50.24281
        11.54000           12.29724          -30.56589           5.079750          -49.34919
        11.56000           11.76917          -28.28878           4.677749          -48.50499
        11.58000           11.31175          -26.09838           4.335719          -47.70710
        11.60000           10.91871          -23.98300           4.041875          -46.95160
        11.62000           10.58537          -21.93312           3.787291          -46.23505
        11.64000           10.30795          -19.93847           3.564842          -45.55380
        11.66000           10.08391          -17.99063           3.369055          -44.90494
        11.68000           9.911561          -16.08023           3.195464          -44.28538
        11.70000           9.790306          -14.19941           3.040594          -43.69279
        11.72000           9.720458          -12.33921           2.901545          -43.12471
        11.74000           9.703474          -10.49188           2.776037          -42.57929
        11.76000           9.741963          -8.648370           2.662127          -42.05453
        11.78000           9.839885          -6.800585           2.558274          -41.54904
        11.80000           10.00286          -4.938916           2.463136          -41.06119
        11.82000           10.23838          -3.054507           2.375646          -40.58988
        11.84000           10.55650          -1.136745           2.294852          -40.13379
        11.86000           10.97018           0.824340           2.219997          -39.69205
        11.88000           11.49662           2.840577           2.150390          -39.26360
        11.90000           12.15790           4.922963           2.085481          -38.84773
        11.92000           12.98334           7.083935           2.024758          -38.44355
        11.94000           14.01098           9.333924           1.967815          -38.05050
        11.96000           15.29174           11.68262           1.914265          -37.66783
        11.98000           16.89240           14.13313           1.863802          -37.29510
        12.00000           18.90286           16.67985           1.816129          -36.93166
        12.02000           21.44102           19.29555           1.771012          -36.57716
        12.04000           24.66296           21.91754           1.728218          -36.23103
        12.06000           28.76419           24.41420           1.687567          -35.89298
        12.08000           33.97656           26.53812           1.648873          -35.56254
        12.10000           40.52030           27.84724           1.611995          -35.23945
        12.12000           48.48768           27.61870           1.576782          -34.92329
        12.14000           57.56765           24.82234           1.543125          -34.61387
        12.16000           66.65443           18.36239           1.510900          -34.31081
        12.18000           73.62867           7.842613           1.480018          -34.01394
        12.20000           76.07529          -5.442044           1.450378          -33.72293
        12.22000           72.96016          -18.55022           1.421903          -33.43760
        12.24000           65.55374          -28.66101           1.394523          -33.15777
        12.26000           56.31225          -34.70079           1.368160          -32.88316
        12.28000           47.25373          -37.19791           1.342762          -32.61367
        12.30000           39.37453          -37.26810           1.318262          -32.34904
        12.32000           32.92225          -35.91177           1.294617          -32.08917
        12.34000           27.77972          -33.81649           1.271771          -31.83384
        12.36000           23.72182          -31.39825           1.249687          -31.58296
        12.38000           20.51960          -28.88812           1.228317          -31.33633
        12.40000           17.98260          -26.40819           1.207631          -31.09387
        12.42000           15.95974          -24.01602           1.187586          -30.85540
        12.44000           14.33761          -21.73605           1.168156          -30.62085
        12.46000           13.03023          -19.57267           1.149306          -30.39005
        12.48000           11.97451          -17.52219           1.131014          -30.16295
        12.50000           11.12318          -15.57508           1.113247          -29.93938
        12.52000           10.44233          -13.72133           1.095987          -29.71931
        12.54000           9.907481          -11.94958           1.079205          -29.50257
        12.56000           9.502706          -10.25049           1.062885          -29.28914
        12.58000           9.218807          -8.615410           1.047003          -29.07886
        12.60000           9.053311          -7.039592           1.031545          -28.87172
        12.62000           9.009835          -5.522019           1.016487          -28.66757
        12.64000           9.097911          -4.070364           1.001819          -28.46639
        12.66000           9.331163          -2.704102           0.987519          -28.26806
        12.68000           9.721604          -1.463504           0.973578          -28.07256
        12.70000           10.26577          -0.415183           0.959978          -27.87976
        12.72000           10.91631           0.348431           0.946709          -27.68965
        12.74000           11.54704           0.743061           0.933756          -27.50211
        12.76000           11.94954           0.771257           0.921109          -27.31715
        12.78000           11.92633           0.599182           0.908755          -27.13464
        12.80000           11.44081           0.506070           0.896687          -26.95457
        12.82000           10.64855           0.709014           0.884890          -26.77686
        12.84000           9.766294           1.258617           0.873359          -26.60148
        12.86000           8.946236           2.087049           0.862081          -26.42835
        12.88000           8.253636           3.096579           0.851051          -26.25746
        12.90000           7.697186           4.208520           0.840258          -26.08871
        12.92000           7.261860           5.371356           0.829695          -25.92209
        12.94000           6.926507           6.555384           0.819357          -25.75756
        12.96000           6.671212           7.745595           0.809232          -25.59505
        12.98000           6.479823           8.934533           0.799319          -25.43456
        13.00000           6.339675           10.12021           0.789605          -25.27598
        13.02000           6.241274           11.30240           0.780090          -25.11936
        13.04000           6.177440           12.48300           0.770764          -24.96457
        13.06000           6.142866           13.66388           0.761623          -24.81166
        13.08000           6.133576           14.84792           0.752660          -24.66051
        13.10000           6.146638           16.03747           0.743872          -24.51116
        13.12000           6.179904           17.23564           0.735252          -24.36352
        13.14000           6.231812           18.44481           0.726797          -24.21760
        13.16000           6.301302           19.66812           0.718499          -24.07333
        13.18000           6.387656           20.90794           0.710358          -23.93070
        13.20000           6.490513           22.16747           0.702367          -23.78967
        13.22000           6.609720           23.44910           0.694523          -23.65024
        13.24000           6.745428           24.75614           0.686820          -23.51233
        13.26000           6.897909           26.09113           0.679257          -23.37597
        13.28000           7.067728           27.45755           0.671828          -23.24107
        13.30000           7.255537           28.85816           0.664531          -23.10766
        13.32000           7.462287           30.29678           0.657362          -22.97567
        13.34000           7.689001           31.77647           0.650318          -22.84513
        13.36000           7.937043           33.30147           0.643395          -22.71595
        13.38000           8.207846           34.87530           0.636591          -22.58816
        13.40000           8.503245           36.50277           0.629902          -22.46169
        13.42000           8.825167           38.18794           0.623327          -22.33657
        13.44000           9.176027           39.93640           0.616860          -22.21272
        13.46000           9.558363           41.75294           0.610502          -22.09017
        13.48000           9.975329           43.64408           0.604247          -21.96886
        13.50000           10.43027           45.61560           0.598096          -21.84881
        13.52000           10.92731           47.67518           0.592043          -21.72996
        13.54000           11.47087           49.82990           0.586089          -21.61231
        13.56000           12.06639           52.08895           0.580229          -21.49582
        13.58000           12.71976           54.46101           0.574463          -21.38053
        13.60000           13.43822           56.95726           0.568786          -21.26634
        13.62000           14.22974           59.58847           0.563200          -21.15330
        13.64000           15.10411           62.36837           0.557699          -21.04134
        13.66000           16.07239           65.31094           0.552283          -20.93048
        13.68000           17.14755           68.43177           0.546951          -20.82070
        13.70000           18.34551           71.74998           0.541700          -20.71197
        13.72000           19.68434           75.28484           0.536528          -20.60428
        13.74000           21.18658           79.06041           0.531434          -20.49761
        13.76000           22.87827           83.10138           0.526416          -20.39196
        13.78000           24.79206           87.43839           0.521471          -20.28728
        13.80000           26.96642           92.10313           0.516601          -20.18361
        13.82000           29.44993           97.13462           0.511801          -20.08088
        13.84000           32.30096           102.5736           0.507071          -19.97912
        13.86000           35.59406           108.4695           0.502409          -19.87827
        13.88000           39.42054           114.8737           0.497815          -19.77837
        13.90000           43.89860           121.8471           0.493285          -19.67936
        13.92000           49.17606           129.4510           0.488821          -19.58127
        13.94000           55.44700           137.7543           0.484419          -19.48404
        13.96000           62.95935           146.8190           0.480079          -19.38770
        13.98000           72.04320           156.7019           0.475799          -19.29221
        14.00000           83.12792           167.4264           0.471579          -19.19758
        14.02000           96.79037           178.9636           0.467416          -19.10377
        14.04000           113.7858           191.1620           0.463311          -19.01080
        14.06000           135.1177           203.6606           0.459261          -18.91863
        14.08000           162.0559           215.6933           0.455267          -18.82727
        14.10000           196.1449           225.8014           0.451326          -18.73669
        14.12000           238.9607           231.3439           0.447438          -18.64692
        14.14000           291.4912           227.9002           0.443601          -18.55789
        14.16000           352.5363           208.8917           0.439816          -18.46964
        14.18000           416.1704           166.5855           0.436080          -18.38213
        14.20000           469.5072           96.36908           0.432394          -18.29537
        14.22000           495.5951           3.725750           0.428755          -18.20933
        14.24000           483.8790          -93.26857           0.425164          -18.12402
        14.26000           439.2773          -173.7363           0.421618          -18.03942
        14.28000           377.7701          -226.8759           0.418118          -17.95552
        14.30000           314.6126          -254.1743           0.414663          -17.87231
        14.32000           258.3821          -262.8585           0.411252          -17.78980
        14.34000           211.7662          -260.2226           0.407883          -17.70796
        14.36000           174.4074          -251.5336           0.404558          -17.62679
        14.38000           144.8299          -240.0546           0.401273          -17.54626
        14.40000           121.4419          -227.6457           0.398029          -17.46640
        14.42000           102.8584          -215.3014           0.394826          -17.38719
        14.44000           87.96870          -203.5121           0.391662          -17.30860
        14.46000           75.93050          -192.4991           0.388537          -17.23065
        14.48000           66.09917          -182.3279           0.385449          -17.15331
        14.50000           57.99502          -172.9937           0.382400          -17.07659
        14.52000           51.25022          -164.4478           0.379387          -17.00047
        14.54000           45.58920          -156.6309           0.376410          -16.92496
        14.56000           40.79705          -149.4744           0.373469          -16.85002
        14.58000           36.71058          -142.9154           0.370563          -16.77568
        14.60000           33.19981          -136.8911           0.367691          -16.70191
        14.62000           30.16461          -131.3479           0.364854          -16.62872
        14.64000           27.52355          -126.2344           0.362049          -16.55608
        14.66000           25.21304          -121.5078           0.359277          -16.48400
        14.68000           23.18029          -117.1273           0.356538          -16.41247
        14.70000           21.38366          -113.0597           0.353830          -16.34150
        14.72000           19.78785          -109.2729           0.351153          -16.27104
        14.74000           18.36478          -105.7412           0.348508          -16.20113
        14.76000           17.09022          -102.4393           0.345892          -16.13174
        14.78000           15.94472          -99.34723           0.343306          -16.06288
        14.80000           14.91125          -96.44511           0.340749          -15.99451
        14.82000           13.97604          -93.71714           0.338222          -15.92667
        14.84000           13.12683          -91.14754           0.335722          -15.85931
        14.86000           12.35368          -88.72385           0.333251          -15.79247
        14.88000           11.64759          -86.43337           0.330806          -15.72611
        14.90000           11.00126          -84.26616           0.328390          -15.66024
        14.92000           10.40796          -82.21192           0.325999          -15.59484
        14.94000           9.862226          -80.26265           0.323635          -15.52992
        14.96000           9.358965          -78.40995           0.321297          -15.46547
        14.98000           8.894028          -76.64732           0.318984          -15.40149
        15.00000           8.463489          -74.96780           0.316696          -15.33796
        15.02000           8.064163          -73.36609           0.314434          -15.27489
        15.04000           7.692989          -71.83640           0.312195          -15.21227
        15.06000           7.347485          -70.37436           0.309980          -15.15009
        15.08000           7.025233          -68.97511           0.307789          -15.08835
        15.10000           6.724286          -67.63505           0.305622          -15.02705
        15.12000           6.442712          -66.35004           0.303477          -14.96618
        15.14000           6.178922          -65.11688           0.301354          -14.90573
        15.16000           5.931483          -63.93265           0.299255          -14.84571
        15.18000           5.698993          -62.79406           0.297177          -14.78610
        15.20000           5.480335          -61.69882           0.295120          -14.72691
        15.22000           5.274364          -60.64412           0.293085          -14.66812
        15.24000           5.080174          -59.62801           0.291071          -14.60974
        15.26000           4.896821          -58.64805           0.289078          -14.55176
        15.28000           4.723564          -57.70260           0.287105          -14.49418
        15.30000           4.559616          -56.78953           0.285153          -14.43698
        15.32000           4.404371          -55.90744           0.283220          -14.38018
        15.34000           4.257170          -55.05446           0.281307          -14.32376
        15.36000           4.117508          -54.22940           0.279413          -14.26772
        15.38000           3.984833          -53.43062           0.277538          -14.21206
        15.40000           3.858722          -52.65707           0.275682          -14.15677
        15.42000           3.738709          -51.90733           0.273845          -14.10184
        15.44000           3.624438          -51.18047           0.272026          -14.04729
        15.46000           3.515512          -50.47524           0.270224          -13.99309
        15.48000           3.411633          -49.79086           0.268441          -13.93926
        15.50000           3.312458          -49.12615           0.266675          -13.88577
        15.52000           3.217735          -48.48048           0.264927          -13.83265
        15.54000           3.127170          -47.85281           0.263195          -13.77986
        15.56000           3.040548          -47.24256           0.261481          -13.72743
        15.58000           2.957614          -46.64878           0.259783          -13.67532
        15.60000           2.878185          -46.07101           0.258101          -13.62356
        15.62000           2.802040          -45.50837           0.256436          -13.57213
        15.64000           2.729020          -44.96044           0.254787          -13.52104
        15.66000           2.658934          -44.42645           0.253153          -13.47027
        15.68000           2.591644          -43.90602           0.251535          -13.41983
        15.70000           2.526983          -43.39847           0.249932          -13.36971
        15.72000           2.464831          -42.90346           0.248345          -13.31991
        15.74000           2.405041          -42.42033           0.246772          -13.27042
        15.76000           2.347511          -41.94884           0.245215          -13.22125
        15.78000           2.292109          -41.48837           0.243671          -13.17238
        15.80000           2.238747          -41.03867           0.242143          -13.12383
        15.82000           2.187309          -40.59922           0.240628          -13.07557
        15.84000           2.137716          -40.16978           0.239127          -13.02762
        15.86000           2.089865          -39.74987           0.237641          -12.97996
        15.88000           2.043682          -39.33924           0.236168          -12.93260
        15.90000           1.999095          -38.93763           0.234708          -12.88554
        15.92000           1.956018          -38.54459           0.233262          -12.83877
        15.94000           1.914394          -38.15997           0.231829          -12.79228
        15.96000           1.874146          -37.78337           0.230409          -12.74608
        15.98000           1.835224          -37.41464           0.229002          -12.70016
        16.00000           1.797558          -37.05342           0.227608          -12.65452
        16.02000           1.761105          -36.69958           0.226226          -12.60916
        16.04000           1.725802          -36.35277           0.224856          -12.56407
        16.06000           1.691609          -36.01289           0.223499          -12.51925
        16.08000           1.658471          -35.67960           0.222154          -12.47471
        16.10000           1.626353          -35.35283           0.220821          -12.43043
        16.12000           1.595203          -35.03226           0.219499          -12.38642
        16.14000           1.564992          -34.71781           0.218190          -12.34267
        16.16000           1.535671          -34.40920           0.216891          -12.29918
        16.18000           1.507216          -34.10636           0.215605          -12.25595
        16.20000           1.479581          -33.80902           0.214329          -12.21297
        16.22000           1.452745          -33.51713           0.213065          -12.17026
        16.24000           1.426668          -33.23043           0.211811          -12.12778
        16.26000           1.401328          -32.94887           0.210569          -12.08557
        16.28000           1.376691          -32.67221           0.209337          -12.04359
        16.30000           1.352736          -32.40042           0.208115          -12.00187
        16.32000           1.329431          -32.13327           0.206905          -11.96038
        16.34000           1.306760          -31.87071           0.205704          -11.91914
        16.36000           1.284693          -31.61255           0.204514          -11.87813
        16.38000           1.263213          -31.35876           0.203334          -11.83737
        16.40000           1.242294          -31.10911           0.202164          -11.79683
        16.42000           1.221923          -30.86362           0.201003          -11.75654
        16.44000           1.202072          -30.62207           0.199853          -11.71646
        16.46000           1.182732          -30.38445           0.198712          -11.67662
        16.48000           1.163876          -30.15058           0.197581          -11.63701
        16.50000           1.145497          -29.92044           0.196459          -11.59762
        16.52000           1.127570          -29.69387           0.195347          -11.55846
        16.54000           1.110087          -29.47086           0.194244          -11.51952
        16.56000           1.093028          -29.25124           0.193149          -11.48079
        16.58000           1.076380          -29.03496           0.192064          -11.44228
        16.60000           1.060134          -28.82199           0.190988          -11.40399
        16.62000           1.044271          -28.61217           0.189921          -11.36591
        16.64000           1.028784          -28.40550           0.188862          -11.32805
        16.66000           1.013655          -28.20185           0.187812          -11.29040
        16.68000           0.998878          -28.00119           0.186771          -11.25295
        16.70000           0.984438          -27.80341           0.185738          -11.21572
        16.72000           0.970328          -27.60849           0.184713          -11.17869
        16.74000           0.956535          -27.41632           0.183697          -11.14186
        16.76000           0.943052          -27.22688           0.182689          -11.10524
        16.78000           0.929865          -27.04008           0.181689          -11.06881
        16.80000           0.916971          -26.85589           0.180697          -11.03259
        16.82000           0.904356          -26.67421           0.179712          -10.99656
        16.84000           0.892016          -26.49504           0.178736          -10.96073
        16.86000           0.879939          -26.31827           0.177768          -10.92509
        16.88000           0.868121          -26.14391           0.176807          -10.88965
        16.90000           0.856550          -25.97184           0.175853          -10.85439
        16.92000           0.845225          -25.80208           0.174907          -10.81933
        16.94000           0.834133          -25.63452           0.173969          -10.78445
        16.96000           0.823271          -25.46918           0.173038          -10.74976
        16.98000           0.812631          -25.30594           0.172114          -10.71526
        17.00000           0.802208          -25.14483           0.171197          -10.68094
        17.02000           0.791994          -24.98575           0.170288          -10.64680
        17.04000           0.781986          -24.82871           0.169385          -10.61285
        17.06000           0.772176          -24.67361           0.168490          -10.57907
        17.08000           0.762560          -24.52047           0.167601          -10.54548
        17.10000           0.753132          -24.36920           0.166719          -10.51206
        17.12000           0.743888          -24.21982           0.165844          -10.47881
        17.14000           0.734821          -24.07223           0.164976          -10.44574
        17.16000           0.725929          -23.92645           0.164114          -10.41285
        17.18000           0.717205          -23.78241           0.163259          -10.38012
        17.20000           0.708647          -23.64011           0.162410          -10.34756
        17.22000           0.700248          -23.49948           0.161567          -10.31517
        17.24000           0.692007          -23.36053           0.160731          -10.28296
        17.26000           0.683917          -23.22318           0.159902          -10.25090
        17.28000           0.675978          -23.08744           0.159078          -10.21902
        17.30000           0.668181          -22.95326           0.158261          -10.18729
        17.32000           0.660526          -22.82062           0.157449          -10.15573
        17.34000           0.653010          -22.68950           0.156644          -10.12433
        17.36000           0.645627          -22.55985           0.155845          -10.09309
        17.38000           0.638376          -22.43168           0.155052          -10.06201
        17.40000           0.631252          -22.30492           0.154264          -10.03109
        17.42000           0.624254          -22.17959           0.153482          -10.00032
        17.44000           0.617377          -22.05561           0.152706          -9.969713
        17.46000           0.610619          -21.93303           0.151936          -9.939261
        17.48000           0.603977          -21.81175           0.151172          -9.908959
        17.50000           0.597449          -21.69181           0.150413          -9.878810
        17.52000           0.591031          -21.57313           0.149659          -9.848810
        17.54000           0.584722          -21.45575           0.148911          -9.818965
        17.56000           0.578518          -21.33959           0.148168          -9.789264
        17.58000           0.572418          -21.22468           0.147431          -9.759715
        17.60000           0.566417          -21.11095           0.146699          -9.730309
        17.62000           0.560517          -20.99843           0.145972          -9.701054
        17.64000           0.554712          -20.88706           0.145251          -9.671937
        17.66000           0.549002          -20.77686           0.144534          -9.642970
        17.68000           0.543383          -20.66777           0.143823          -9.614141
        17.70000           0.537855          -20.55980           0.143117          -9.585457
        17.72000           0.532414          -20.45291           0.142416          -9.556911
        17.74000           0.527061          -20.34712           0.141719          -9.528507
        17.76000           0.521791          -20.24236           0.141028          -9.500239
        17.78000           0.516604          -20.13867           0.140342          -9.472112
        17.80000           0.511497          -20.03599           0.139660          -9.444118
        17.82000           0.506470          -19.93433           0.138983          -9.416265
        17.84000           0.501519          -19.83365           0.138311          -9.388540
        17.86000           0.496645          -19.73397           0.137644          -9.360956
        17.88000           0.491845          -19.63523           0.136981          -9.333499
        17.90000           0.487117          -19.53747           0.136323          -9.306177
        17.92000           0.482460          -19.44062           0.135669          -9.278984
        17.94000           0.477874          -19.34471           0.135020          -9.251925
        17.96000           0.473354          -19.24970           0.134375          -9.224991
        17.98000           0.468903          -19.15559           0.133735          -9.198189
        18.00000           0.464516          -19.06235           0.133099          -9.171510
        18.02000           0.460194          -18.96999           0.132468          -9.144964
        18.04000           0.455934          -18.87848           0.131841          -9.118540
        18.06000           0.451735          -18.78781           0.131218          -9.092237
        18.08000           0.447598          -18.69798           0.130599          -9.066065
        18.10000           0.443519          -18.60896           0.129985          -9.040010
        18.12000           0.439499          -18.52076           0.129375          -9.014085
        18.14000           0.435534          -18.43335           0.128769          -8.988275
        18.16000           0.431627          -18.34673           0.128167          -8.962590
        18.18000           0.427773          -18.26088           0.127569          -8.937021
        18.20000           0.423974          -18.17580           0.126975          -8.911576
        18.22000           0.420227          -18.09146           0.126385          -8.886244
        18.24000           0.416532          -18.00788           0.125799          -8.861036
        18.26000           0.412887          -17.92501           0.125216          -8.835939
        18.28000           0.409292          -17.84289           0.124638          -8.810961
        18.30000           0.405745          -17.76146           0.124064          -8.786096
        18.32000           0.402247          -17.68075           0.123493          -8.761349
        18.34000           0.398795          -17.60071           0.122926          -8.736711
        18.36000           0.395390          -17.52138           0.122363          -8.712192
        18.38000           0.392030          -17.44271           0.121804          -8.687778
        18.40000           0.388714          -17.36471           0.121248          -8.663483
        18.42000           0.385442          -17.28736           0.120696          -8.639291
        18.44000           0.382213          -17.21067           0.120147          -8.615215
        18.46000           0.379026          -17.13462           0.119602          -8.591244
        18.48000           0.375880          -17.05920           0.119061          -8.567386
        18.50000           0.372775          -16.98440           0.118523          -8.543631
        18.52000           0.369710          -16.91022           0.117989          -8.519989
        18.54000           0.366683          -16.83664           0.117458          -8.496448
        18.56000           0.363696          -16.76367           0.116930          -8.473016
        18.58000           0.360745          -16.69129           0.116406          -8.449687
        18.60000           0.357833          -16.61950           0.115885          -8.426465
        18.62000           0.354956          -16.54827           0.115368          -8.403344
        18.64000           0.352116          -16.47763           0.114854          -8.380330
        18.66000           0.349311          -16.40754           0.114343          -8.357412
        18.68000           0.346540          -16.33802           0.113835          -8.334603
        18.70000           0.343804          -16.26904           0.113331          -8.311890
        18.72000           0.341101          -16.20061           0.112830          -8.289282
        18.74000           0.338431          -16.13271           0.112332          -8.266768
        18.76000           0.335793          -16.06534           0.111837          -8.244357
        18.78000           0.333187          -15.99849           0.111345          -8.222044
        18.80000           0.330613          -15.93216           0.110857          -8.199827
        18.82000           0.328069          -15.86635           0.110371          -8.177711
        18.84000           0.325555          -15.80103           0.109888          -8.155688
        18.86000           0.323072          -15.73622           0.109409          -8.133765
        18.88000           0.320618          -15.67190           0.108932          -8.111935
        18.90000           0.318192          -15.60807           0.108459          -8.090202
        18.92000           0.315795          -15.54471           0.107988          -8.068561
        18.94000           0.313426          -15.48185           0.107521          -8.047017
        18.96000           0.311084          -15.41943           0.107056          -8.025563
        18.98000           0.308770          -15.35750           0.106594          -8.004204
        19.00000           0.306482          -15.29601           0.106135          -7.982933
        19.02000           0.304220          -15.23499           0.105679          -7.961760
        19.04000           0.301984          -15.17441           0.105225          -7.940673
        19.06000           0.299773          -15.11428           0.104774          -7.919679
        19.08000           0.297587          -15.05458           0.104327          -7.898771
        19.10000           0.295426          -14.99533           0.103881          -7.877958
        19.12000           0.293289          -14.93649           0.103439          -7.857226
        19.14000           0.291176          -14.87809           0.102999          -7.836590
        19.16000           0.289086          -14.82010           0.102562          -7.816036
        19.18000           0.287020          -14.76253           0.102128          -7.795574
        19.20000           0.284976          -14.70537           0.101696          -7.775195
        19.22000           0.282955          -14.64861           0.101266          -7.754904
        19.24000           0.280956          -14.59225           0.100840          -7.734696
        19.26000           0.278978          -14.53630           0.100416          -7.714578
        19.28000           0.277022          -14.48073           0.099994          -7.694538
        19.30000           0.275087          -14.42556           0.099575          -7.674587
        19.32000           0.273173          -14.37077           0.099158          -7.654716
        19.34000           0.271279          -14.31636           0.098744          -7.634933
        19.36000           0.269406          -14.26232           0.098333          -7.615228
        19.38000           0.267552          -14.20866           0.097924          -7.595607
        19.40000           0.265718          -14.15537           0.097517          -7.576065
        19.42000           0.263904          -14.10244           0.097113          -7.556609
        19.44000           0.262108          -14.04987           0.096711          -7.537229
        19.46000           0.260331          -13.99766           0.096311          -7.517931
        19.48000           0.258573          -13.94580           0.095914          -7.498712
        19.50000           0.256832          -13.89428           0.095519          -7.479570
        19.52000           0.255110          -13.84312           0.095126          -7.460512
        19.54000           0.253406          -13.79229           0.094736          -7.441529
        19.56000           0.251719          -13.74182           0.094348          -7.422624
        19.58000           0.250049          -13.69166           0.093962          -7.403797
        19.60000           0.248397          -13.64185           0.093579          -7.385048
        19.62000           0.246760          -13.59236           0.093198          -7.366371
        19.64000           0.245141          -13.54320           0.092818          -7.347775
        19.66000           0.243538          -13.49436           0.092442          -7.329252
        19.68000           0.241951          -13.44584           0.092067          -7.310807
        19.70000           0.240379          -13.39763           0.091694          -7.292434
        19.72000           0.238824          -13.34974           0.091324          -7.274136
        19.74000           0.237283          -13.30215           0.090956          -7.255909
        19.76000           0.235758          -13.25488           0.090589          -7.237761
        19.78000           0.234248          -13.20790           0.090225          -7.219681
        19.80000           0.232753          -13.16122           0.089863          -7.201677
        19.82000           0.231272          -13.11484           0.089503          -7.183743
        19.84000           0.229806          -13.06876           0.089146          -7.165882
        19.86000           0.228354          -13.02297           0.088790          -7.148091
        19.88000           0.226915          -12.97747           0.088436          -7.130373
        19.90000           0.225491          -12.93225           0.088084          -7.112723
        19.92000           0.224081          -12.88732           0.087734          -7.095146
        19.94000           0.222683          -12.84266           0.087386          -7.077636
        19.96000           0.221300          -12.79829           0.087040          -7.060198
        19.98000           0.219929          -12.75418           0.086696          -7.042826
        20.00000           0.218571          -12.71036           0.086354          -7.025526
# 
# 02/11/2024 at 10:30 yambo @ unimi-XPS-8930 [start]
# 02/11/2024 at 10:30                        [end]
#  
# Timing   [Min/Max/Average]: 04s/04s/04s
#
# .-Input file  yambo.in
# | rim_cut                          # [R] Coulomb potential
# | optics                           # [R] Linear Response optical properties
# | dipoles                          # [R] Oscillator strenghts (or dipoles)
# | bss                              # [R] BSE solver
# | bse                              # [R][BSE] Bethe Salpeter Equation.
# | ElecTemp= 0.025861         eV    # Electronic Temperature
# | BoseTemp= 0.025861         eV    # Bosonic Temperature
# | DIP_Threads= 1                   # [OPENMP/X] Number of threads for dipoles
# | BS_nCPU_LinAlg_INV= 1            # [PARALLEL] CPUs for Linear Algebra (if -1 it is automatically set)
# | BS_nCPU_LinAlg_DIAGO= 1          # [PARALLEL] CPUs for Linear Algebra (if -1 it is automatically set)
# | X_Threads= 1                     # [OPENMP/X] Number of threads for response functions
# | K_Threads= 1                     # [OPENMP/BSK] Number of threads for response functions
# | RandQpts=0                       # [RIM] Number of random q-points in the BZ
# | RandGvec= 1                RL    # [RIM] Coulomb interaction RS components
# | CUTGeo= "ws xyz"                 # [CUT] Coulomb Cutoff geometry: box/cylinder/sphere/ws/slab X/Y/Z/XY..
# | % CUTBox
# |  0.000000 | 0.000000 | 0.000000 |        # [CUT] [au] Box sides
# | %
# | CUTRadius= 0.000000              # [CUT] [au] Sphere/Cylinder radius
# | CUTCylLen= 0.000000              # [CUT] [au] Cylinder length
# | CUTwsGvec= 0.700000              # [CUT] WS cutoff: number of G to be modified
# | BSKmod= "HARTREE"                # [BSE] IP/Hartree/HF/ALDA/SEX/BSfxc
# | BSEmod= "retarded"               # [BSE] resonant/retarded/coupling
# | BSSmod= "hd"                     # [BSS] (h)aydock/(d)iagonalization/(s)lepc/(i)nversion/(t)ddft`
# | % DipBands
# |   2 |  7 |                           # [DIP] Bands range for dipoles
# | %
# | DipComputed= "R V P"             # [DIP] [default R P V; extra P2 Spin Orb]
# | BSENGexx=  4015            RL    # [BSK] Exchange components
# | % BSEQptR
# |  1 | 1 |                             # [BSK] Transferred momenta range
# | %
# | % BSEBands
# |   2 |  7 |                           # [BSK] Bands range
# | %
# | % BEnRange
# | -20.00000 | 20.00000 |         eV    # [BSS] Energy range
# | %
# | % BDmRange
# |  0.100000 | 0.100000 |         eV    # [BSS] Damping range
# | %
# | BEnSteps= 2001                   # [BSS] Energy steps
# | % BLongDir
# |  1.000000 | 0.000000 | 0.000000 |        # [BSS] [cc] Electric Field versor
# | %
# | BSEprop= " abs jdos dich kerr esrt" # [BSS] Can be any among abs/jdos/kerr/asymm/anHAll/magn/dich/photolum/esrt
# | BSEdips= "none"                  # [BSS] Can be "trace/none" or "xy/xz/yz" to define off-diagonal rotation plane
# | #WRbsWF                        # [BSS] Write to disk excitonic the WFs
# | BSHayTrs= 0.100000E-2            # [BSS] Relative [o/o] Haydock threshold. Strict(>0)/Average(<0)
# | BSHayItrMAX= 200                 # [BSS] MaX number of Haydock iterations.
