#                                                           
# :::   :::   :::     ::::    ::::  :::::::::   ::::::::    
# :+:   :+: :+: :+:   +:+:+: :+:+:+ :+:    :+: :+:    :+:   
#  +:+ +:+ +:+   +:+  +:+ +:+:+ +:+ +:+    +:+ +:+    +:+   
#   +#++: +#++:++#++: +#+  +:+  +#+ +#++:++#+  +#+    +:+   
#    +#+  +#+     +#+ +#+       +#+ +#+    +#+ +#+    +#+   
#    #+#  #+#     #+# #+#       #+# #+#    #+# #+#    #+#   
#    ###  ###     ### ###       ### #########   ########    
#                                                           
#                                                           
#        Version 4.3.0 Revision 15169 Hash 3ae439d          
#                      MPI+SLK Build                        
#                http://www.yambo-code.org                  
#
# Absorption @ Q(1) [q->0 direction] : 1.0000000  0.0000000  0.0000000
#
#
# - Energies      are Slater exchange(X)+Perdew & Zunger(C)
# - Wavefunctions are Slater exchange(X)+Perdew & Zunger(C)
#
# - The Green`s function is Retarded -
# - Using the Length Gauge -
# - [r,Vnl] *is* included -
#
#    E/ev[1]       EPS-Im[2]     EPS-Re[3]     EPSo-Im[4]    EPSo-Re[5]
#
    0.0000       0.30140E-5     193.54       0.45582E-5     214.95   
   0.10020E-1    0.35544        193.56       0.44188        214.97   
   0.20040E-1    0.71123        193.60       0.88431        215.03   
   0.30060E-1     1.0679        193.69        1.3279        215.14   
   0.40080E-1     1.4258        193.82        1.7732        215.28   
   0.50100E-1     1.7853        193.96        2.2207        215.48   
   0.60120E-1     2.1467        194.14        2.6712        215.71   
   0.70140E-1     2.5108        194.37        3.1250        215.99   
   0.80160E-1     2.8775        194.64        3.5830        216.31   
   0.90180E-1     3.2480        194.94        4.0456        216.67   
   0.10020        3.6223        195.26        4.5136        217.08   
   0.11022        4.0011        195.63        4.9875        217.54   
   0.12024        4.3843        196.03        5.4681        218.04   
   0.13026        4.7721        196.47        5.9560        218.58   
   0.14028        5.1665        196.95        6.4519        219.18   
   0.15030        5.5661        197.46        6.9567        219.82   
   0.16032        5.9732        198.01        7.4710        220.51   
   0.17034        6.3885        198.62        7.9957        221.24   
   0.18036        6.8109        199.24        8.5317        222.03   
   0.19038        7.2427        199.90        9.0797        222.87   
   0.20040        7.6826        200.61        9.6408        223.76   
   0.21042        8.1342        201.39        10.216        224.71   
   0.22044        8.5942        202.19        10.806        225.71   
      0.23046       9.06652     203.03917      11.41249     226.76405
      0.24048       9.55172     203.93349      12.03617     227.87738
      0.25050      10.04753     204.85112      12.67837     229.04973
      0.26052      10.55840     205.82274      13.34041     230.28278
      0.27054      11.08243     206.86794      14.02367     231.57828
      0.28056      11.62490     207.94934      14.72963     232.93810
      0.29058      12.18180     209.06833      15.45984     234.36420
      0.30060      12.75793     210.24408      16.21600     235.85890
      0.31062      13.34939     211.44371      16.99991     237.42407
      0.32064      13.96408     212.73512      17.81347     239.06232
      0.33066      14.60346     214.09920      18.65877     240.77614
      0.34068      15.26312     215.51102      19.53802     242.56834
      0.35070      15.94768     216.98012      20.45360     244.44170
      0.36072      16.65152     218.49199      21.40812     246.39931
      0.37074      17.39387     220.12451      22.40434     248.44444
      0.38076      18.16187     221.80118      23.44527     250.58058
      0.39078      18.96323     223.55878      24.53416     252.81137
      0.40080      19.79867     225.38507      25.67456     255.14085
      0.41082      20.66511     227.25201      26.87030     257.57312
      0.42084      21.57046     229.26234      28.12556     260.11261
      0.43086      22.52081     231.30412      29.44487     262.76404
      0.44088      23.51137     233.43259      30.83320     265.53259
      0.45090      24.55507     235.67310      32.29597     268.42352
      0.46092      25.65092     238.01424      33.83910     271.44257
      0.47094      26.79859     240.43990      35.46911     274.59601
      0.48096      28.00432     242.95274      37.19313     277.89020
      0.49098      29.27682     245.61143      39.01902     281.33203
      0.50100      30.61737     248.35904      40.95543     284.92917
      0.51102      32.03747     251.26042      43.01192     288.68921
      0.52104      33.52548     254.24336      45.19908     292.62079
      0.53106      35.11072     257.38727      47.52860     296.73276
      0.54108      36.77859     260.62979      50.01348     301.03464
      0.55110      38.55674     264.02142      52.66819     305.53668
      0.56112      40.43462     267.58929      55.50886     310.24954
      0.57114      42.42654     271.28519      58.55346     315.18475
      0.58116      44.56190     275.16632      61.82218     320.35440
      0.59118      46.83543     279.19836      65.33762     325.77130
      0.60120      49.25662     283.43604      69.12518     331.44894
      0.61122      51.86126     287.88873      73.21349     337.40146
      0.62124      54.65982     292.53171      77.63482     343.64371
      0.63126      57.64418     297.37247      82.42579     350.19092
      0.64128      60.85539     302.41119      87.62788     357.05887
      0.65130      64.32491     307.78049      93.28822     364.26358
      0.66132      68.03054     313.26486      99.46056     371.82080
      0.67134      72.07584     319.16013     106.20621     379.74597
      0.68136      76.42716     325.20840     113.59539     388.05386
      0.69138      81.16316     331.71753     121.70854     396.75693
      0.70140      86.32178     338.37610     130.63817     405.86536
      0.71142      91.92370     345.47427     140.49051     415.38495
      0.72144      98.06161     352.98679     151.38792     425.31537
      0.73146     104.72910     360.58676     163.47169     435.64777
      0.74148     112.11861     368.78598     176.90434     446.36115
      0.75150     120.17243     377.20868     191.87309     457.41769
      0.76152     129.10750     386.23532     208.59302     468.75656
      0.77154     139.01752     395.27902     227.31020     480.28497
      0.78156     149.81107     405.04803     248.30441     491.86899
      0.79158     161.91394     415.11575     271.89099     503.31650
      0.80160     175.35558     425.49933     298.41940     514.35974
      0.81162     190.38831     436.04996     328.26822     524.63086
      0.82164     207.35434     447.12555     361.83340     533.63153
      0.83166     226.05603     458.06848     399.50403     540.69794
      0.84168     247.32393     468.99609     441.62302     544.95959
      0.85170     270.92023     479.89401     488.42029     545.30090
      0.86172     297.86102     489.91187     539.91504     540.33215
      0.87174     327.74457     499.15152     595.77814     528.38995
      0.88176     361.58994     506.73883     655.15668     507.59625
      0.89178     399.76285     512.36249     716.47943     476.01038
      0.90180     441.99301     514.71332     777.29474     431.91550
      0.91182     488.70117     512.32355     834.22687     374.24228
      0.92184     539.72296     504.44946     883.17023     303.08218
      0.93186     595.37567     488.81583     919.79364     220.13770
      0.94188     652.90698     463.83032     940.34033     128.88196
      0.95190     711.12451     427.85751     942.50208      34.23740
      0.96192     767.53839     379.10062     926.03204     -58.23531
      0.97194     817.15405     318.24863     892.81433    -143.38612
      0.98196     858.00702     244.52310     846.35345    -217.37048
      0.99198     884.93671     161.47867     790.92810    -278.08847
      1.00200     895.79242      72.11275     730.75146    -325.12027
      1.01202     888.09540     -16.83598     669.38959    -359.31998
      1.02204     863.76324    -101.25264     609.50439    -382.30112
      1.03206     825.26013    -176.97688     552.85144    -395.98456
      1.04208     776.23254    -240.59431     500.42871    -402.27979
      1.05210     720.87885    -291.78082     452.66623    -402.90585
      1.06212     662.92926    -329.34192     409.60919    -399.31534
      1.07214     605.08453    -355.97894     371.06506    -392.68350
      1.08216     549.68573    -372.91888     336.70987    -383.93207
      1.09218     498.15805    -381.93588     306.16049    -373.76794
      1.10220     450.68719    -384.95389     279.02008    -362.72302
      1.11222     407.66296    -383.20761     254.90475    -351.19131
      1.12224     368.96933    -378.40308     233.45775    -339.46075
      1.13226     334.60580    -370.86743     214.35645    -327.73825
      1.14228     304.03894    -361.83154     197.31279    -316.16989
      1.15230     276.73312    -351.61649     182.07364    -304.85608
      1.16232     252.47121    -340.83417     168.41716    -293.86398
      1.17234     231.07803    -329.75256     156.15030    -283.23593
      1.18236     211.93796    -318.58136     145.10529    -272.99603
      1.19238     194.79156    -307.42242     135.13654    -263.15558
      1.20240     179.59671    -296.59305     126.11768    -253.71619
      1.21242     165.90849    -286.01889     117.93908    -244.67331
      1.22244     153.59276    -275.76743     110.50542    -236.01741
      1.23246     142.65840    -265.79657     103.73388    -227.73640
      1.24248     132.70447    -256.25314      97.55206    -219.81561
      1.25250     123.75265    -247.12682      91.89684    -212.23976
      1.26252     115.65314    -238.35492      86.71304    -204.99287
      1.27254     108.24451    -229.94881      81.95210    -198.05876
      1.28257     101.54015    -221.93585      77.57150    -191.42155
      1.29259      95.42304    -214.23354      73.53368    -185.06551
      1.30261      89.81572    -206.86801      69.80553    -178.97560
      1.31263      84.69663    -199.84573      66.35773    -173.13736
      1.32265      80.00132    -193.10452      63.16431    -167.53690
      1.33267      75.66277    -186.66330      60.20217    -162.16110
      1.34269      71.68277    -180.49434      57.45076    -156.99745
      1.35271      67.98708    -174.58948      54.89167    -152.03400
      1.36273      64.59229    -168.92694      52.50855    -147.25974
      1.37275      61.44835    -163.49240      50.28670    -142.66402
      1.38277      58.53753    -158.29210      48.21293    -138.23700
      1.39279      55.83109    -153.28830      46.27538    -133.96921
      1.40281      53.31448    -148.47742      44.46340    -129.85191
      1.41283      50.97745    -143.85573      42.76736    -125.87672
      1.42285      48.79852    -139.41110      41.17857    -122.03593
      1.43287      46.75682    -135.11894      39.68917    -118.32205
      1.44289      44.85675    -130.99129      38.29204    -114.72816
      1.45291      43.08070    -127.00764      36.98072    -111.24772
      1.46293      41.41438    -123.16055      35.74936    -107.87445
      1.47295      39.85909    -119.45183      34.59262    -104.60262
      1.48297      38.39713    -115.85944      33.50568    -101.42661
      1.49299      37.02797    -112.39026      32.48412     -98.34121
      1.50301      35.74125    -109.02796      31.52394     -95.34144
      1.51303      34.53515    -105.77411      30.62150     -92.42256
      1.52305      33.40167    -102.61611      29.77347     -89.58012
     1.533066     32.336060    -99.554871     28.976830    -86.809845
     1.543086     31.332563    -96.579292     28.228817    -84.107689
     1.553106     30.390074    -93.688728     27.526945    -81.469772
     1.563126     29.504387    -90.877419     26.868929    -78.892357
     1.573146     28.671198    -88.140732     26.252724    -76.371880
     1.583166     27.888971    -85.476494     25.676477    -73.904984
     1.593186     27.152088    -82.876450     25.138521    -71.488396
     1.603206     26.462046    -80.341911     24.637356    -69.118889
     1.613226     25.812645    -77.865623     24.171656    -66.793510
     1.623246     25.203718    -75.445419     23.740244    -64.509216
     1.633266     24.634531    -73.079414     23.342100    -62.263203
     1.643287     24.101521    -70.761948     22.976349    -60.052681
     1.653307     23.602776    -68.489754     22.642241    -57.874939
     1.663327     23.139048    -66.262482     22.339176    -55.727291
     1.673347     22.707876    -64.076736     22.066683    -53.607155
     1.683367     22.308649    -61.928871     21.824429    -51.511948
     1.693387     21.939558    -59.815861     21.612207    -49.439137
     1.703407     21.600651    -57.736435     21.429949    -47.386192
     1.713427     21.291462    -55.687572     21.277739    -45.350670
     1.723447     21.010136    -53.665722     21.155783    -43.330040
     1.733467     20.757574    -51.670067     21.064455    -41.321835
     1.743487     20.533852    -49.698334     21.004282    -39.323544
     1.753507     20.336435    -47.745716     20.975950    -37.332664
     1.763527     20.167698    -45.812721     20.980331    -35.346638
     1.773547     20.026476    -43.895306     21.018492    -33.362892
     1.783567     19.913334    -41.991859     21.091705    -31.378822
     1.793587     19.829342    -40.100262     21.201466    -29.391716
     1.803607     19.773449    -38.217556     21.349539    -27.398874
     1.813627     19.747526    -36.341793     21.537949    -25.397482
     1.823647     19.751535    -34.470501     21.769032    -23.384689
     1.833667     19.787514    -32.601379     22.045486    -21.357447
     1.843687     19.855492    -30.731779     22.370382    -19.312759
     1.853707     19.957602    -28.859451     22.747225    -17.247459
     1.863727     20.094547    -26.982094     23.180029    -15.158293
     1.873747     20.270008    -25.096483     23.673351    -13.041886
     1.883767     20.484974    -23.199635     24.232407    -10.894828
     1.893788     20.742376    -21.289114     24.863131     -8.713531
     1.903808     21.043943    -19.362957     25.572296     -6.494397
     1.913828     21.393694    -17.417725     26.367655     -4.233737
     1.923848     21.794910    -15.450191     27.258053     -1.927855
     1.933868     22.252550    -13.456914     28.253616      0.426913
     1.943888     22.771059    -11.435061     29.365978      2.834142
     1.953908     23.356199     -9.380552     30.608473      5.297165
     1.963928     24.013365     -7.291247     31.996445      7.818989
     1.973948     24.750280     -5.163775     33.547558     10.402073
     1.983968     25.574957     -2.992768     35.282169     13.048041
     1.993988     26.497320     -0.776713     37.223763     15.757333
     2.004008     27.526560      1.488673     39.399433     18.528719
     2.014028     28.676098      3.806719     41.840462     21.358585
     2.024048     29.960398      6.179683     44.582870     24.240133
     2.034068     31.393801      8.611211     47.668022     27.161961
     2.044088     32.997173     11.101925     51.143505     30.106836
     2.054108     34.790428     13.652638     55.063251     33.049137
     2.064128     36.798687     16.262669     59.488045     35.952267
     2.074148     39.051022     18.929123     64.485443     38.765026
     2.084168     41.580265     21.647879     70.128647     41.416836
     2.094188     44.422859     24.406818     76.494247     43.812031
     2.104208     47.625668     27.193424     83.657768     45.822838
     2.114228     51.236721     29.985559     91.685760     47.281689
      2.12425      55.31044      32.74566     100.62335      47.97359
      2.13427      59.91064      35.44109     110.47527      47.63044
      2.14429      65.11069      37.99467     121.17926      45.93098
      2.15431      70.97290      40.33347     132.57234      42.51185
      2.16433      77.57731      42.33405     144.35284      36.99684
      2.17435      84.98182      43.86731     156.04897      29.05150
      2.18437      93.24364      44.71693     167.00967      18.46524
      2.19439     102.37572      44.65531     176.44051       5.25057
      2.20441     112.32700      43.40260     183.50121     -10.26917
      2.21443     122.98938      40.58759     187.45908     -27.42702
      2.22445     134.10472      35.86386     187.85928     -45.27266
      2.23447     145.28018      28.88885     184.64523     -62.72810
      2.24449     155.89656      19.45179     178.17430     -78.79083
      2.25451     165.24631       7.53999     169.12152     -92.70856
      2.26453     172.57684      -6.69900     158.31470    -104.06736
      2.27455     177.08263     -22.64394     146.57262    -112.77931
      2.28457     178.30554     -39.47981     134.58998    -119.00594
      2.29459     176.04799     -56.21782     122.88654    -123.05775
      2.30461     170.59772     -71.83546     111.80629    -125.30661
      2.31463     162.56168     -85.54535     101.54519    -126.12314
      2.32465     152.63498     -96.95649      92.18843    -125.84151
      2.33467     141.64024    -105.79494      83.74601    -124.74439
      2.34469     130.28142    -112.24436      76.18121    -123.06056
      2.35471     119.11452    -116.54546      69.43153    -120.96959
      2.36473     108.45894    -119.06885      63.42276    -118.60924
      2.37475      98.52086    -120.11761      58.07790    -116.08308
      2.38477      89.44563    -120.07406      53.32235    -113.46787
      2.39479      81.24692    -119.21873      49.08679    -110.81979
      2.40481      73.88110    -117.73421      45.30842    -108.17905
      2.41483      67.29907    -115.82941      41.93129    -105.57411
      2.42485      61.43933    -113.63598      38.90608    -103.02448
      2.43487      56.23059    -111.27376      36.18965    -100.54321
      2.44489      51.59452    -108.80802      33.74439     -98.13845
      2.45491      47.46722    -106.29046      31.53765     -95.81487
      2.46493      43.78789    -103.78092      29.54110     -93.57465
      2.47495      40.49325    -101.30106      27.73006     -91.41800
     2.484970     37.552685    -98.870102     26.083231    -89.343933
     2.494990     34.915096    -96.505005     24.582029    -87.350594
     2.505010     32.535389    -94.200256     23.210299    -85.435509
     2.515030     30.391140    -91.978447     21.953951    -83.595856
     2.525050     28.453646    -89.831642     20.800676    -81.828560
     2.535070     26.699505    -87.772163     19.739687    -80.130432
     2.545090     25.102909    -85.783234     18.761539    -78.498291
     2.555110     23.649380    -83.874573     17.857918    -76.928986
     2.565130     22.321856    -82.041359     17.021496    -75.419411
     2.575150     21.106482    -80.281082     16.245802    -73.966614
     2.585170     19.990129    -78.584328     15.525099    -72.567688
     2.595190     18.963594    -76.957695     14.854303    -71.219917
     2.605210     18.017790    -75.396729     14.228892    -69.920700
     2.615230     17.145161    -73.891647     13.644844    -68.667534
     2.625250     16.338692    -72.447975     13.098554    -67.458099
     2.635270     15.589265    -71.048889     12.586806    -66.290207
     2.645291     14.895021    -69.712448     12.106704    -65.161743
     2.655311     14.248131    -68.419830     11.655655    -64.070786
     2.665331     13.645309    -67.174049     11.231322    -63.015434
     2.675350     13.083164    -65.975807     10.831601    -61.994038
     2.685370     12.557066    -64.816010     10.454574    -61.004868
     2.695390     12.064783    -63.699940     10.098518    -60.046402
     2.705411     11.602874    -62.618443      9.761870    -59.117226
     2.715431     11.169154    -61.573662      9.443213    -58.215969
     2.725451     10.761520    -60.564896      9.141244    -57.341343
     2.735471     10.377357    -59.587017      8.854789    -56.492126
     2.745491     10.014833    -58.640186      8.582766    -55.667187
     2.755511      9.672604    -57.721710      8.324193    -54.865448
     2.765531      9.348701    -56.833160      8.078166    -54.085911
     2.775551      9.042798    -55.969639      7.843861    -53.327618
     2.785571      8.752863    -55.132057      7.620513    -52.589653
     2.795591      8.477270    -54.318378      7.407426    -51.871181
     2.805611      8.216730    -53.528988      7.203963    -51.171398
     2.815631      7.968770    -52.762989      7.009516    -50.489521
     2.825651      7.732990    -52.016876      6.823547    -49.824863
     2.835671      7.508490    -51.291328      6.645547    -49.176716
     2.845691      7.294336    -50.584003      6.475047    -48.544445
     2.855711      7.090214    -49.897034      6.311615    -47.927448
     2.865731      6.895160    -49.227531      6.154845    -47.325130
     2.875751      6.708727    -48.574566      6.004364    -46.736931
     2.885771      6.530639    -47.938950      5.859828    -46.162373
     2.895791      6.360122    -47.318420      5.720907    -45.600906
     2.905811      6.197042    -46.713776      5.587302    -45.052094
     2.915831      6.040522    -46.124020      5.458732    -44.515457
     2.925852      5.890339    -45.547817      5.334933    -43.990582
     2.935872      5.746336    -44.984428      5.215664    -43.477058
     2.945892      5.607941    -44.435501      5.100689    -42.974510
     2.955912      5.475032    -43.897556      4.989799    -42.482559
     2.965932      5.347060    -43.372017      4.882791    -42.000851
     2.975952      5.224294    -42.859028      4.779477    -41.529057
     2.985972      5.105729    -42.356777      4.679677    -41.066830
     2.995992      4.991644    -41.866135      4.583228    -40.613884
     3.006012      4.881601    -41.385063      4.489972    -40.169933
     3.016032      4.775452    -40.913708      4.399763    -39.734673
     3.026052      4.673321    -40.453548      4.312460    -39.307842
     3.036072      4.574510    -40.000946      4.227937    -38.889187
     3.046092      4.479043    -39.558426      4.146067    -38.478458
     3.056112      4.386976    -39.125790      4.066736    -38.075417
     3.066132      4.297740    -38.700413      3.989833    -37.679840
     3.076152      4.211457    -38.283707      3.915256    -37.291504
     3.086172      4.127971    -37.874359      3.842907    -36.910206
     3.096192      4.047142    -37.473579      3.772693    -36.535751
     3.106212      3.968967    -37.081085      3.704526    -36.167938
     3.116232      3.893208    -36.695324      3.638322    -35.806576
     3.126252      3.819554    -36.315529      3.574003    -35.451492
     3.136272      3.748425    -35.945133      3.511494    -35.102512
     3.146292      3.679245    -35.579548      3.450725    -34.759468
     3.156312      3.612141    -35.220798      3.391628    -34.422211
     3.166332      3.547002    -34.868710      3.334138    -34.090565
     3.176353      3.483804    -34.522942      3.278196    -33.764416
     3.186373      3.422294    -34.182362      3.223744    -33.443600
     3.196393      3.362601    -33.848099      3.170726    -33.127991
     3.206413      3.304567    -33.519859      3.119089    -32.817444
     3.216433      3.248152    -33.196800      3.068785    -32.511848
     3.226453      3.193191    -32.879097      3.019765    -32.211063
     3.236473      3.139745    -32.566730      2.971983    -31.914982
     3.246493      3.087812    -32.260071      2.925397    -31.623482
     3.256513      3.037133    -31.957253      2.879965    -31.336460
     3.266533      2.987811    -31.659668      2.835648    -31.053791
     3.276553      2.939741    -31.366831      2.792408    -30.775398
     3.286573      2.892953    -31.078979      2.750208    -30.501156
     3.296593      2.847270    -30.795315      2.709015    -30.230978
     3.306613      2.802779    -30.516184      2.668795    -29.964767
     3.316633      2.759414    -30.241375      2.629518    -29.702446
     3.326653      2.717097    -29.970366      2.591151    -29.443909
     3.336673      2.675812    -29.703402      2.553667    -29.189083
     3.346693      2.635488    -29.440722      2.517039    -28.937868
     3.356713      2.596162    -29.181896      2.481238    -28.690195
     3.366733      2.557671    -28.926472      2.446240    -28.445988
     3.376753      2.520135    -28.675056      2.412020    -28.205158
     3.386773      2.483501    -28.427467      2.378555    -27.967651
     3.396793      2.447681    -28.183340      2.345823    -27.733383
     3.406813      2.412678    -27.942312      2.313802    -27.502295
     3.416834      2.378410    -27.704441      2.282469    -27.274305
     3.426854      2.344989    -27.470570      2.251808    -27.049362
     3.436873      2.312269    -27.239527      2.221797    -26.827391
     3.446894      2.280282    -27.011709      2.192419    -26.608322
     3.456913      2.249013    -26.786793      2.163656    -26.392126
     3.466934      2.218429    -26.565582      2.135490    -26.178719
     3.476954      2.188485    -26.347149      2.107907    -25.968056
     3.486974      2.159199    -26.131445      2.080888    -25.760063
     3.496994      2.130543    -25.918339      2.054420    -25.554705
     3.507014      2.102493    -25.708515      2.028488    -25.351929
     3.517034      2.074973    -25.501041      2.003079    -25.151676
     3.527054      2.048087    -25.296410      1.978178    -24.953901
     3.537074      2.021729    -25.094349      1.953773    -24.758551
     3.547094      1.995850    -24.894821      1.929850    -24.565578
     3.557114      1.970508    -24.697994      1.906400    -24.374947
     3.567134      1.945740    -24.503366      1.883407    -24.186596
     3.577154      1.921484    -24.311275      1.860864    -24.000490
     3.587174      1.897651    -24.121548      1.838758    -23.816593
     3.597194      1.874336    -23.934401      1.817081    -23.634853
     3.607214      1.851435    -23.748840      1.795820    -23.455233
     3.617234      1.829004    -23.566067      1.774968    -23.277691
     3.627254      1.807012    -23.385550      1.754513    -23.102177
     3.637274      1.785428    -23.206799      1.734449    -22.928679
     3.647294      1.764281    -23.030436      1.714767    -22.757147
     3.657315      1.743539    -22.856033      1.695458    -22.587528
     3.667334      1.723194    -22.683630      1.676515    -22.419806
     3.677355      1.703197    -22.513075      1.657929    -22.253931
     3.687374      1.683619    -22.344696      1.639695    -22.089891
     3.697395      1.664420    -22.178398      1.621805    -21.927629
     3.707415      1.645579    -22.013674      1.604252    -21.767124
     3.717435      1.627120    -21.850910      1.587031    -21.608341
     3.727455      1.608929    -21.689634      1.570136    -21.451250
     3.737475      1.591151    -21.530880      1.553560    -21.295818
     3.747495      1.573669    -21.373440      1.537299    -21.142015
     3.757515      1.556500    -21.217468      1.521347    -20.989798
     3.767535      1.539677    -21.063589      1.505701    -20.839167
     3.777555      1.523163    -20.911238      1.490354    -20.690062
     3.787575      1.506954    -20.760340      1.475304    -20.542473
     3.797595      1.491039    -20.611246      1.460545    -20.396362
     3.807615      1.475405    -20.463314      1.446076    -20.251703
     3.817635      1.460098    -20.317484      1.431891    -20.108469
     3.827655      1.445050    -20.172880      1.417990    -19.966640
     3.837675      1.430293    -20.029783      1.404368    -19.826174
     3.847695      1.415824    -19.888170      1.391024    -19.687057
     3.857715      1.401590    -19.747889      1.377955    -19.549255
     3.867735      1.387693    -19.609093      1.365162    -19.412746
     3.877755      1.374035    -19.471638      1.352640    -19.277506
     3.887775      1.360636    -19.335505      1.340392    -19.143497
     3.897795      1.347486    -19.200680      1.328415    -19.010714
     3.907815      1.334600    -19.067232      1.316710    -18.879112
     3.917835      1.321962    -18.935017      1.305279    -18.748682
     3.927855      1.309559    -18.803719      1.294121    -18.619373
     3.937876      1.297429    -18.673925      1.283240    -18.491190
     3.947896      1.285584    -18.545359      1.272636    -18.364090
     3.957916      1.273942    -18.418016      1.262313    -18.238052
     3.967936      1.262583    -18.291914      1.252275    -18.113041
     3.977956      1.251450    -18.166679      1.242525    -17.989054
     3.987976      1.240565    -18.042747      1.233071    -17.866037
     3.997996      1.229910    -17.919634      1.223917    -17.743992
     4.008016      1.219537    -17.797943      1.215072    -17.622869
     4.018036      1.209398    -17.677090      1.206543    -17.502657
     4.028056      1.199502    -17.557184      1.198341    -17.383320
     4.038076      1.189880    -17.438366      1.190476    -17.264832
     4.048096      1.180520    -17.320692      1.182961    -17.147165
     4.058116      1.171432    -17.203718      1.175811    -17.030293
     4.068136      1.162566    -17.087351      1.169043    -16.914188
     4.078156      1.154027    -16.972450      1.162675    -16.798824
     4.088176      1.145724    -16.858244      1.156730    -16.684156
     4.098196      1.137706    -16.744865      1.151231    -16.570166
     4.108216      1.130001    -16.632271      1.146205    -16.456821
     4.118237      1.122586    -16.520428      1.141685    -16.344091
     4.128256      1.115505    -16.409496      1.137707    -16.231937
     4.138277      1.108733    -16.299305      1.134310    -16.120335
     4.148296      1.102318    -16.189661      1.131543    -16.009243
     4.158317      1.096256    -16.080786      1.129457    -15.898640
     4.168336      1.090566    -15.972583      1.128113    -15.788479
     4.178357      1.085255    -15.865111      1.127580    -15.678738
     4.188376      1.080366    -15.757914      1.127937    -15.569384
     4.198397      1.075948    -15.651530      1.129274    -15.460402
     4.208416      1.072005    -15.545867      1.131695    -15.351759
     4.218437      1.068562    -15.440685      1.135317    -15.243435
     4.228456      1.065671    -15.335702      1.140273    -15.135437
     4.238477      1.063397    -15.231454      1.146716    -15.027765
     4.248497      1.061735    -15.127523      1.154815    -14.920432
     4.258517      1.060805    -15.024121      1.164763    -14.813501
     4.268537      1.060646    -14.921162      1.176766    -14.707048
     4.278557      1.061301    -14.818616      1.191051    -14.601184
     4.288577      1.062909    -14.716205      1.207854    -14.496071
     4.298597      1.065539    -14.614346      1.227406    -14.391941
     4.308617      1.069181    -14.512728      1.249926    -14.289055
     4.318637      1.074073    -14.411426      1.275593    -14.187785
     4.328657      1.080323    -14.310644      1.304525    -14.088511
     4.338677      1.087892    -14.210232      1.336757    -13.991652
     4.348697      1.096982    -14.110200      1.372248    -13.897606
     4.358717      1.107682    -14.010666      1.410902    -13.806693
     4.368737      1.120112    -13.911642      1.452651    -13.719132
     4.378757      1.134616    -13.813115      1.497550    -13.635078
     4.388777      1.151117    -13.715137      1.545887    -13.554689
     4.398798      1.169938    -13.617593      1.598207    -13.478352
     4.408818      1.191498    -13.520635      1.655243    -13.406857
     4.418838      1.216112    -13.424497      1.717695    -13.341619
     4.428858      1.244270    -13.329394      1.785932    -13.284727
     4.438878      1.276375    -13.235719      1.859604    -13.238894
     4.448898      1.312841    -13.143917      1.937289    -13.207222
     4.458918      1.354065    -13.055064      2.016157    -13.192778
     4.468938      1.400223    -12.969518      2.091834    -13.197962
     4.478958      1.451521    -12.888460      2.158537    -13.223687
     4.488978      1.507904    -12.812888      2.209700    -13.268633
     4.498998      1.569333    -12.743782      2.239056    -13.328731
     4.509017      1.635697    -12.682551      2.242020    -13.397352
     4.519038      1.706661    -12.630583      2.216853    -13.466322
     4.529058      1.781632    -12.590009      2.165152    -13.527389
     4.539078      1.859392    -12.562859      2.091383    -13.573821
     4.549098      1.937548    -12.551697      2.001753    -13.601375
     4.559118      2.012601    -12.558643      1.902830    -13.608479
     4.569138      2.079615    -12.584832      1.800503    -13.595789
     4.579158      2.132508    -12.629486      1.699363    -13.565436
     4.589178      2.165441    -12.689412      1.602599    -13.520247
     4.599198      2.173544    -12.758790      1.512124    -13.463200
     4.609218      2.154385    -12.830033      1.428882    -13.397073
     4.619238      2.108896    -12.895056      1.353111    -13.324254
     4.629258      2.040887    -12.947035      1.284620    -13.246707
     4.639278      1.955938    -12.981111      1.222953    -13.165983
     4.649298      1.860665    -12.995268      1.167534    -13.083279
     4.659318      1.760796    -12.989851      1.117740    -12.999504
     4.669338      1.661323    -12.966481      1.072961    -12.915336
     4.679358      1.565425    -12.927893      1.032619    -12.831257
     4.689379      1.475471    -12.877088      0.996190    -12.747630
     4.699399      1.392443    -12.816657      0.963200    -12.664697
     4.709419      1.316767    -12.749173      0.933236    -12.582639
     4.719439      1.248278    -12.676691      0.905931    -12.501570
     4.729459      1.186603    -12.600736      0.880965    -12.421548
     4.739479      1.131174    -12.522519      0.858063    -12.342622
     4.749499      1.081406    -12.443074      0.836983    -12.264814
     4.759519      1.036659    -12.363145      0.817516    -12.188118
     4.769539      0.996417    -12.283159      0.799479    -12.112523
     4.779559      0.960110    -12.203464      0.782716    -12.038012
     4.789579      0.927308    -12.124480      0.767088    -11.964562
     4.799599      0.897532    -12.046150      0.752476    -11.892149
     4.809619      0.870431    -11.968862      0.738774    -11.820743
     4.819639      0.845690    -11.892476      0.725892    -11.750309
     4.829659      0.823043    -11.817191      0.713746    -11.680820
     4.839679      0.802218    -11.742956      0.702269    -11.612247
     4.849699      0.783013    -11.669829      0.691396    -11.544559
     4.859719      0.765257    -11.597680      0.681073    -11.477724
     4.869740      0.748791    -11.526545      0.671250    -11.411721
     4.879759      0.733446    -11.456612      0.661884    -11.346522
     4.889780      0.719113    -11.387556      0.652937    -11.282097
     4.899799      0.705712    -11.319446      0.644374    -11.218431
     4.909820      0.693124    -11.252339      0.636163    -11.155490
     4.919839      0.681285    -11.186193      0.628279    -11.093261
     4.929859      0.670090    -11.120788      0.620695    -11.031718
     4.939879      0.659513    -11.056409      0.613389    -10.970840
     4.949899      0.649481    -10.992708      0.606341    -10.910606
     4.959919      0.639967    -10.929836      0.599533    -10.851013
     4.969940      0.630885    -10.867756      0.592949    -10.792027
     4.979960      0.622215    -10.806441      0.586573    -10.733634
     4.989980      0.613925    -10.745757      0.580393    -10.675830
     5.000000      0.606002    -10.685858      0.574395    -10.618591
# 
# 07/24/2018 at 07:02 YAMBO @ NewLaptop [start]
# 07/24/2018 at 07:03                   [end]
#  
# Timing   [Min/Max/Average]: 02s/02s/02s
#
# .-Input file : yambo.in
# | optics                         # [R OPT] Optics
# | chi                            # [R CHI] Dyson equation for Chi.
# | ElecTemp=  0.02586     eV      # Electronic Temperature
# | BoseTemp=  0.02586     eV      # Bosonic Temperature
# | FFTGvecs= 181          RL      # [FFT] Plane-waves
# | Chimod= "Hartree"              # [X] IP/Hartree/ALDA/LRC/BSfxc
# | NGsBlkXd=  51          RL      # [Xd] Response block size
# | % QpntsRXd
# |  1 | 2 |                       # [Xd] Transferred momenta
# | %
# | % BndsRnXd
# |   1 | 20 |                     # [Xd] Polarization function bands
# | %
# | GrFnTpXd= "R"                  # [Xd] Green`s function (T)ordered,(R)etarded,(r)senant,(a)ntiresonant [T, R, r, Ta, Ra]
# | % EnRngeXd
# |  0.000000 | 5.000000 | eV      # [Xd] Energy range
# | %
# | % DmRngeXd
# |   0.10000 |  0.10000 | eV      # [Xd] Damping range
# | %
# | ETStpsXd=  500                 # [Xd] Total Energy steps
# | % LongDrXd
# | 0.1000E-4 | 0.000    | 0.000    |        # [Xd] [cc] Electric Field
# | %
