#                                                                     
#                                                                     
# Y88b    /   e           e    e      888~~\    ,88~-_                
#  Y88b  /   d8b         d8b  d8b     888   |  d888   \               
#   Y88b/   /Y88b       d888bdY88b    888 _/  88888    |              
#    Y8Y   /  Y88b     / Y88Y Y888b   888  \  88888    |              
#     Y   /____Y88b   /   YY   Y888b  888   |  Y888   /               
#    /   /      Y88b /          Y888b 888__/    `88_-~                
#                                                                     
#                                                                     
# Version 5.2.0 Revision 23129 Hash (prev commit) 3a51862bc           
#            Branch is phys-levels_degeneracy                         
#                   MPI+HDF5_IO Build                                 
#                http://www.yambo-code.eu                             
#
# Absorption @ Q(1):   1.00000000      0.00000000      0.00000000    [q->0 direction]
#
# [GEN] GF Energies                               : Slater exchange(X)+Perdew & Zunger(C)
# [GEN] Green`s Function                          : Retarded
#
# [GEN] Gauge                                     : Length
# [GEN] [r,Vnl] included                          : yes
#
# DIP band range                                  :   1   8
# DIP band range limits                           :   4   5
# DIP e/h energy range                            :  -1.00000000     -1.00000000    [eV]
# RL vectors in the sum                           :   387
# [r,Vnl] included                                : yes
# Bands ordered                                   : yes
# Direct v evaluation                             : no
# Approach used                                   : G-space v
# Dipoles computed                                : R V P
# Wavefunctions                                   : Slater exchange(X)+Perdew & Zunger(C)
#
# Diamagnetic term                                
# Ao                                              :   8.52741909    [nel]
#
#    E[1] [eV]          Im(eps)            Re(eps)
#
        0.000000           0.000000           59.63441
        0.010010           0.013809           59.63505
        0.020020           0.027620           59.63713
        0.030030           0.041436           59.64056
        0.040040           0.055258           59.64536
        0.050050           0.069089           59.65158
        0.060060           0.082931           59.65913
        0.070070           0.096785           59.66806
        0.080080           0.110655           59.67840
        0.090090           0.124542           59.69011
        0.100100           0.138449           59.70324
        0.110110           0.152377           59.71767
        0.120120           0.166330           59.73355
        0.130130           0.180309           59.75080
        0.140140           0.194316           59.76947
        0.150150           0.208353           59.78951
        0.160160           0.222424           59.81099
        0.170170           0.236530           59.83382
        0.180180           0.250673           59.85808
        0.190190           0.264856           59.88372
        0.200200           0.279082           59.91081
        0.210210           0.293351           59.93931
        0.220220           0.307667           59.96922
        0.230230           0.322033           60.00055
        0.240240           0.336450           60.03338
        0.250250           0.350921           60.06758
        0.260260           0.365449           60.10326
        0.270270           0.380035           60.14033
        0.280280           0.394683           60.17891
        0.290290           0.409395           60.21894
        0.300300           0.424173           60.26041
        0.310310           0.439020           60.30338
        0.320320           0.453939           60.34787
        0.330330           0.468932           60.39378
        0.340340           0.484002           60.44123
        0.350350           0.499152           60.49014
        0.360360           0.514384           60.54062
        0.370370           0.529702           60.59256
        0.380380           0.545107           60.64604
        0.390390           0.560603           60.70109
        0.400400           0.576193           60.75766
        0.410410           0.591880           60.81579
        0.420420           0.607666           60.87550
        0.430430           0.623556           60.93679
        0.440440           0.639551           60.99962
        0.450450           0.655655           61.06406
        0.460460           0.671871           61.13015
        0.470470           0.688203           61.19783
        0.480480           0.704653           61.26714
        0.490490           0.721226           61.33807
        0.500500           0.737923           61.41069
        0.510511           0.754751           61.48497
        0.520521           0.771710           61.56093
        0.530531           0.788805           61.63854
        0.540541           0.806040           61.71791
        0.550551           0.823420           61.79897
        0.560561           0.840945           61.88176
        0.570571           0.858622           61.96634
        0.580581           0.876455           62.05264
        0.590591           0.894446           62.14071
        0.600601           0.912601           62.23060
        0.610611           0.930924           62.32231
        0.620621           0.949419           62.41583
        0.630631           0.968089           62.51122
        0.640641           0.986941           62.60848
        0.650651           1.005977           62.70759
        0.660661           1.025204           62.80857
        0.670671           1.044626           62.91153
        0.680681           1.064247           63.01640
        0.690691           1.084074           63.12323
        0.700701           1.104109           63.23202
        0.710711           1.124361           63.34284
        0.720721           1.144832           63.45565
        0.730731           1.165530           63.57052
        0.740741           1.186459           63.68745
        0.750751           1.207626           63.80648
        0.760761           1.229037           63.92759
        0.770771           1.250696           64.05087
        0.780781           1.272611           64.17630
        0.790791           1.294788           64.30392
        0.800801           1.317234           64.43372
        0.810811           1.339954           64.56578
        0.820821           1.362957           64.70010
        0.830831           1.386250           64.83673
        0.840841           1.409837           64.97568
        0.850851           1.433729           65.11697
        0.860861           1.457934           65.26062
        0.870871           1.482455           65.40671
        0.880881           1.507305           65.55522
        0.890891           1.532491           65.70621
        0.900901           1.558020           65.85976
        0.910911           1.583902           66.01583
        0.920921           1.610146           66.17442
        0.930931           1.636763           66.33566
        0.940941           1.663756           66.49957
        0.950951           1.691143           66.66617
        0.960961           1.718929           66.83549
        0.970971           1.747128           67.00754
        0.980981           1.775746           67.18244
        0.990991           1.804796           67.36014
        1.001001           1.834291           67.54082
        1.011011           1.864242           67.72442
        1.021021           1.894660           67.91092
        1.031031           1.925557           68.10049
        1.041041           1.956948           68.29310
        1.051051           1.988845           68.48889
        1.061061           2.021261           68.68783
        1.071071           2.054211           68.89003
        1.081081           2.087711           69.09546
        1.091091           2.121772           69.30420
        1.101101           2.156412           69.51637
        1.111111           2.191647           69.73199
        1.121121           2.227494           69.95107
        1.131131           2.263970           70.17372
        1.141141           2.301089           70.39999
        1.151151           2.338874           70.62995
        1.161161           2.377344           70.86362
        1.171171           2.416513           71.10120
        1.181181           2.456409           71.34263
        1.191191           2.497047           71.58801
        1.201201           2.538453           71.83739
        1.211211           2.580647           72.09091
        1.221221           2.623654           72.34865
        1.231231           2.667495           72.61063
        1.241241           2.712198           72.87696
        1.251251           2.757787           73.14766
        1.261261           2.804295           73.42294
        1.271271           2.851743           73.70279
        1.281281           2.900161           73.98737
        1.291291           2.949587           74.27671
        1.301301           3.000042           74.57095
        1.311311           3.051564           74.87021
        1.321321           3.104188           75.17450
        1.331331           3.157947           75.48408
        1.341341           3.212879           75.79888
        1.351351           3.269021           76.11922
        1.361361           3.326417           76.44500
        1.371371           3.385104           76.77647
        1.381381           3.445130           77.11372
        1.391391           3.506534           77.45695
        1.401401           3.569370           77.80614
        1.411411           3.633683           78.16162
        1.421421           3.699528           78.52338
        1.431431           3.766953           78.89165
        1.441441           3.836019           79.26661
        1.451451           3.906788           79.64825
        1.461461           3.979312           80.03690
        1.471471           4.053661           80.43270
        1.481481           4.129905           80.83572
        1.491491           4.208106           81.24629
        1.501501           4.288344           81.66454
        1.511511           4.370696           82.09069
        1.521521           4.455247           82.52486
        1.531531           4.542073           82.96732
        1.541541           4.631271           83.41822
        1.551551           4.722930           83.87791
        1.561561           4.817152           84.34660
        1.571571           4.914038           84.82444
        1.581581           5.013702           85.31174
        1.591591           5.116257           85.80869
        1.601601           5.221825           86.31567
        1.611611           5.330530           86.83302
        1.621622           5.442512           87.36079
        1.631632           5.557907           87.89957
        1.641642           5.676877           88.44949
        1.651652           5.799573           89.01094
        1.661662           5.926159           89.58427
        1.671672           6.056816           90.16991
        1.681682           6.191737           90.76811
        1.691692           6.331124           91.37926
        1.701702           6.475179           92.00398
        1.711712           6.624133           92.64250
        1.721722           6.778227           93.29535
        1.731732           6.937711           93.96307
        1.741742           7.102864           94.64595
        1.751752           7.273957           95.34458
        1.761762           7.451313           96.05965
        1.771772           7.635257           96.79163
        1.781782           7.826138           97.54111
        1.791792           8.024325           98.30869
        1.801802           8.230236           99.09509
        1.811812           8.444280           99.90097
        1.821822           8.666920           100.7270
        1.831832           8.898675           101.5739
        1.841842           9.140048           102.4427
        1.851852           9.391617           103.3340
        1.861862           9.654004           104.2488
        1.871872           9.927861           105.1880
        1.881882           10.21392           106.1526
        1.891892           10.51295           107.1437
        1.901902           10.82579           108.1623
        1.911912           11.15334           109.2096
        1.921922           11.49659           110.2867
        1.931932           11.85663           111.3951
        1.941942           12.23461           112.5360
        1.951952           12.63180           113.7110
        1.961962           13.04962           114.9214
        1.971972           13.48955           116.1692
        1.981982           13.95327           117.4557
        1.991992           14.44262           118.7830
        2.002002           14.95959           120.1530
        2.012012           15.50641           121.5678
        2.022022           16.08552           123.0293
        2.032032           16.69961           124.5400
        2.042042           17.35166           126.1023
        2.052052           18.04497           127.7189
        2.062062           18.78331           129.3923
        2.072072           19.57071           131.1258
        2.082082           20.41179           132.9220
        2.092092           21.31169           134.7843
        2.102102           22.27617           136.7160
        2.112112           23.31168           138.7209
        2.122122           24.42559           140.8024
        2.132132           25.62610           142.9642
        2.142142           26.92262           145.2105
        2.152152           28.32568           147.5449
        2.162162           29.84742           149.9717
        2.172172           31.50154           152.4943
        2.182182           33.30380           155.1165
        2.192192           35.27224           157.8414
        2.202202           37.42747           160.6711
        2.212212           39.79310           163.6077
        2.222222           42.39657           166.6508
        2.232232           45.26905           169.7979
        2.242242           48.44670           173.0445
        2.252252           51.97070           176.3812
        2.262262           55.88847           179.7935
        2.272272           60.25354           183.2591
        2.282282           65.12678           186.7458
        2.292292           70.57527           190.2075
        2.302302           76.67297           193.5805
        2.312312           83.49706           196.7774
        2.322322           91.12557           199.6805
        2.332332           99.62984           202.1354
        2.342342           109.0626           203.9415
        2.352352           119.4421           204.8469
        2.362362           130.7260           204.5475
        2.372372           142.7806           202.6936
        2.382382           155.3432           198.9157
        2.392392           167.9890           192.8721
        2.402402           180.1153           184.3263
        2.412412           190.9670           173.2399
        2.422422           199.7193           159.8682
        2.432432           205.6203           144.8044
        2.442442           208.1591           128.9443
        2.452452           207.2021           113.3462
        2.462462           203.0320           99.03821
        2.472472           196.2741           86.83072
        2.482482           187.7435           77.21198
        2.492492           178.2789           70.33722
        2.502502           168.6185           66.09693
        2.512512           159.3358           64.21217
        2.522522           150.8313           64.32687
        2.532532           143.3557           66.07418
        2.542542           137.0466           69.11636
        2.552552           131.9648           73.16291
        2.562562           128.1252           77.97407
        2.572572           125.5201           83.35666
        2.582582           124.1348           89.15564
        2.592592           123.9591           95.24432
        2.602602           124.9933           101.5151
        2.612612           127.2534           107.8692
        2.622622           130.7724           114.2081
        2.632632           135.6007           120.4228
        2.642642           141.8055           126.3849
        2.652653           149.4658           131.9335
        2.662663           158.6671           136.8638
        2.672673           169.4875           140.9128
        2.682683           181.9802           143.7461
        2.692693           196.1429           144.9468
        2.702703           211.8791           144.0127
        2.712713           228.9423           140.3695
        2.722723           246.8782           133.4104
        2.732733           264.9668           122.5766
        2.742743           282.2003           107.4794
        2.752753           297.3217           88.05930
        2.762763           308.9636           64.73357
        2.772773           315.8780           38.47542
        2.782783           317.2149           10.74547
        2.792793           312.7396          -16.72773
        2.802803           302.8964          -42.27349
        2.812813           288.6857          -64.57516
        2.822823           271.4135          -82.84729
        2.832833           252.4183          -96.84591
        2.842843           232.8700          -106.7585
        2.852853           213.6650          -113.0472
        2.862863           195.4133          -116.2988
        2.872873           178.4734          -117.1154
        2.882883           163.0148          -116.0490
        2.892893           149.0726          -113.5714
        2.902903           136.6004          -110.0677
        2.912913           125.5025          -105.8413
        2.922923           115.6617          -101.1253
        2.932933           106.9534          -96.09508
        2.942943           99.25618          -90.88082
        2.952953           92.45608          -85.57688
        2.962963           86.45025          -80.25080
        2.972973           81.14650          -74.94930
        2.982983           76.46413          -69.70475
        2.992993           72.33256          -64.53702
        3.003003           68.69096          -59.45835
        3.013013           65.48666          -54.47442
        3.023023           62.67472          -49.58658
        3.033033           60.21661          -44.79276
        3.043043           58.07973          -40.08878
        3.053053           56.23646          -35.46844
        3.063063           54.66374          -30.92452
        3.073073           53.34237          -26.44902
        3.083083           52.25687          -22.03335
        3.093093           51.39487          -17.66845
        3.103103           50.74693          -13.34501
        3.113113           50.30650          -9.053873
        3.123123           50.06956          -4.785388
        3.133133           50.03459          -0.530413
        3.143143           50.20269           3.720529
        3.153153           50.57746           7.976569
        3.163163           51.16511           12.24669
        3.173173           51.97469           16.53953
        3.183183           53.01826           20.86344
        3.193193           54.31108           25.22582
        3.203203           55.87209           29.63366
        3.213213           57.72425           34.09234
        3.223223           59.89510           38.60594
        3.233233           62.41725           43.17591
        3.243243           65.32928           47.80102
        3.253253           68.67617           52.47531
        3.263263           72.51044           57.18749
        3.273273           76.89262           61.91801
        3.283283           81.89230           66.63725
        3.293293           87.58789           71.30094
        3.303303           94.06745           75.84660
        3.313313           101.4262           80.18678
        3.323323           109.7649           84.20222
        3.333333           119.1828           87.73279
        3.343343           129.7692           90.56818
        3.353353           141.5871           92.43822
        3.363363           154.6487           93.00616
        3.373373           168.8843           91.86947
        3.383383           184.0993           88.57415
        3.393393           199.9308           82.65195
        3.403403           215.8105           73.68841
        3.413413           230.9591           61.42225
        3.423423           244.4383           45.85865
        3.433433           255.2692           27.36686
        3.443443           262.6160           6.700967
        3.453453           265.9723          -15.08766
        3.463463           265.2764          -36.84529
        3.473473           260.8949          -57.53813
        3.483483           253.4848          -76.42761
        3.493493           243.7986          -93.12334
        3.503503           232.5164          -107.5255
        3.513513           220.1662          -119.6996
        3.523524           207.1265          -129.7641
        3.533533           193.6852          -137.8241
        3.543543           180.0962          -143.9648
        3.553553           166.6159          -148.2772
        3.563564           153.4964          -150.8896
        3.573573           140.9642          -151.9791
        3.583583           129.1934          -151.7630
        3.593593           118.2974          -150.4763
        3.603603           108.3283          -148.3503
        3.613613           99.28680          -145.5944
        3.623623           91.13815          -142.3887
        3.633634           83.82456          -138.8800
        3.643643           77.27644          -135.1844
        3.653653           71.41953          -131.3904
        3.663663           66.18138          -127.5645
        3.673674           61.49339          -123.7552
        3.683683           57.29287          -119.9969
        3.693693           53.52295          -116.3130
        3.703704           50.13358          -112.7192
        3.713714           47.08046          -109.2253
        3.723723           44.32492          -105.8365
        3.733733           41.83287          -102.5547
        3.743744           39.57485          -99.37965
        3.753754           37.52511          -96.30946
        3.763763           35.66129          -93.34135
        3.773773           33.96370          -90.47119
        3.783784           32.41532          -87.69493
        3.793794           31.00125          -85.00815
        3.803803           29.70849          -82.40615
        3.813814           28.52550          -79.88413
        3.823824           27.44233          -77.43759
        3.833834           26.45013          -75.06197
        3.843843           25.54124          -72.75284
        3.853854           24.70876          -70.50581
        3.863864           23.94678          -68.31675
        3.873873           23.25004          -66.18182
        3.883883           22.61388          -64.09692
        3.893894           22.03425          -62.05843
        3.903904           21.50766          -60.06280
        3.913913           21.03100          -58.10667
        3.923924           20.60159          -56.18652
        3.933934           20.21717          -54.29928
        3.943944           19.87578          -52.44173
        3.953954           19.57579          -50.61098
        3.963964           19.31592          -48.80390
        3.973974           19.09513          -47.01766
        3.983984           18.91265          -45.24943
        3.993994           18.76807          -43.49649
        4.004004           18.66112          -41.75592
        4.014014           18.59189          -40.02502
        4.024024           18.56071          -38.30109
        4.034034           18.56817          -36.58140
        4.044044           18.61522          -34.86310
        4.054054           18.70302          -33.14348
        4.064064           18.83318          -31.41973
        4.074074           19.00758          -29.68909
        4.084084           19.22853          -27.94855
        4.094094           19.49879          -26.19522
        4.104104           19.82157          -24.42622
        4.114114           20.20065          -22.63839
        4.124124           20.64045          -20.82874
        4.134134           21.14603          -18.99416
        4.144144           21.72325          -17.13162
        4.154154           22.37896          -15.23785
        4.164164           23.12099          -13.30991
        4.174174           23.95840          -11.34489
        4.184184           24.90156          -9.340101
        4.194194           25.96264          -7.293063
        4.204204           27.15553          -5.201911
        4.214214           28.49635          -3.065497
        4.224224           30.00363          -0.883711
        4.234234           31.69906           1.342326
        4.244244           33.60738           3.609215
        4.254254           35.75723           5.911018
        4.264264           38.18144           8.237781
        4.274274           40.91791           10.57490
        4.284284           44.00923           12.90052
        4.294294           47.50344           15.18373
        4.304304           51.45332           17.38137
        4.314314           55.91615           19.43452
        4.324324           60.95047           21.26334
        4.334334           66.61268           22.76177
        4.344344           72.94978           23.79159
        4.354354           79.98929           24.17690
        4.364364           87.72192           23.70047
        4.374374           96.07999           22.10601
        4.384384           104.9115           19.10962
        4.394394           113.9498           14.42773
        4.404404           122.7936           7.824726
        4.414414           130.9084          -0.818679
        4.424424           137.6675          -11.43091
        4.434434           142.4381          -23.68886
        4.444444           144.7079          -37.01239
        4.454454           144.2093          -50.63165
        4.464464           140.9916          -63.72375
        4.474474           135.4073          -75.56435
        4.484484           128.0191          -85.64774
        4.494494           119.4700          -93.73042
        4.504504           110.3657          -99.80665
        4.514514           101.2023          -104.0389
        4.524524           92.33868          -106.6838
        4.534534           84.00430          -108.0291
        4.544544           76.32213          -108.3527
        4.554554           69.33926          -107.8997
        4.564565           63.05159          -106.8749
        4.574574           57.42464          -105.4425
        4.584584           52.40670          -103.7304
        4.594594           47.94018          -101.8365
        4.604605           43.96641          -99.83368
        4.614614           40.42938          -97.77622
        4.624624           37.27707          -95.70319
        4.634634           34.46299          -93.64289
        4.644644           31.94579          -91.61501
        4.654655           29.68886          -89.63284
        4.664664           27.66048          -87.70532
        4.674675           25.83292          -85.83798
        4.684684           24.18214          -84.03379
        4.694695           22.68712          -82.29382
        4.704704           21.32982          -80.61806
        4.714715           20.09444          -79.00565
        4.724724           18.96736          -77.45488
        4.734735           17.93652          -75.96384
        4.744744           16.99158          -74.53013
        4.754755           16.12341          -73.15158
        4.764764           15.32411          -71.82570
        4.774775           14.58657          -70.54997
        4.784785           13.90469          -69.32199
        4.794795           13.27302          -68.13941
        4.804804           12.68679          -67.00012
        4.814815           12.14168          -65.90168
        4.824825           11.63397          -64.84222
        4.834835           11.16026          -63.81960
        4.844844           10.71758          -62.83216
        4.854855           10.30322          -61.87793
        4.864865           9.914785          -60.95534
        4.874875           9.550146          -60.06285
        4.884884           9.207326          -59.19889
        4.894895           8.884607          -58.36208
        4.904905           8.580408          -57.55114
        4.914915           8.293314          -56.76485
        4.924924           8.022012          -56.00196
        4.934935           7.765329          -55.26146
        4.944945           7.522212          -54.54226
        4.954955           7.291707          -53.84348
        4.964964           7.072896          -53.16409
        4.974975           6.864985          -52.50328
        4.984985           6.667242          -51.86025
        4.994995           6.478988          -51.23425
        5.005005           6.299592          -50.62449
        5.015015           6.128485          -50.03031
        5.025025           5.965138          -49.45110
        5.035035           5.809089          -48.88623
        5.045045           5.659863          -48.33514
        5.055055           5.517060          -47.79725
        5.065065           5.380301          -47.27208
        5.075075           5.249229          -46.75911
        5.085085           5.123518          -46.25785
        5.095095           5.002857          -45.76791
        5.105105           4.886976          -45.28890
        5.115115           4.775607          -44.82034
        5.125125           4.668505          -44.36191
        5.135135           4.565435          -43.91321
        5.145144           4.466201          -43.47394
        5.155155           4.370591          -43.04374
        5.165165           4.278422          -42.62236
        5.175175           4.189525          -42.20943
        5.185184           4.103732          -41.80470
        5.195195           4.020893          -41.40789
        5.205205           3.940866          -41.01873
        5.215215           3.863518          -40.63705
        5.225225           3.788721          -40.26256
        5.235235           3.716356          -39.89502
        5.245245           3.646312          -39.53421
        5.255255           3.578483          -39.17998
        5.265265           3.512775          -38.83210
        5.275275           3.449090          -38.49039
        5.285285           3.387340          -38.15466
        5.295295           3.327443          -37.82473
        5.305305           3.269322          -37.50045
        5.315315           3.212897          -37.18168
        5.325325           3.158102          -36.86822
        5.335335           3.104870          -36.55995
        5.345345           3.053139          -36.25671
        5.355355           3.002845          -35.95838
        5.365365           2.953938          -35.66486
        5.375375           2.906354          -35.37593
        5.385385           2.860054          -35.09158
        5.395395           2.814978          -34.81160
        5.405405           2.771084          -34.53596
        5.415415           2.728331          -34.26450
        5.425425           2.686674          -33.99710
        5.435435           2.646070          -33.73370
        5.445445           2.606486          -33.47419
        5.455455           2.567885          -33.21848
        5.465465           2.530231          -32.96644
        5.475475           2.493490          -32.71802
        5.485485           2.457633          -32.47316
        5.495495           2.422627          -32.23173
        5.505505           2.388445          -31.99365
        5.515515           2.355058          -31.75890
        5.525526           2.322441          -31.52734
        5.535535           2.290569          -31.29892
        5.545545           2.259417          -31.07357
        5.555555           2.228960          -30.85125
        5.565566           2.199179          -30.63185
        5.575575           2.170054          -30.41534
        5.585585           2.141558          -30.20165
        5.595595           2.113678          -29.99070
        5.605606           2.086391          -29.78246
        5.615615           2.059681          -29.57686
        5.625625           2.033530          -29.37384
        5.635635           2.007922          -29.17337
        5.645645           1.982841          -28.97538
        5.655655           1.958271          -28.77982
        5.665665           1.934197          -28.58666
        5.675675           1.910605          -28.39581
        5.685685           1.887482          -28.20725
        5.695695           1.864814          -28.02097
        5.705705           1.842587          -27.83689
        5.715715           1.820791          -27.65496
        5.725725           1.799415          -27.47515
        5.735735           1.778445          -27.29743
        5.745746           1.757870          -27.12174
        5.755755           1.737681          -26.94807
        5.765765           1.717868          -26.77637
        5.775775           1.698419          -26.60659
        5.785786           1.679326          -26.43871
        5.795795           1.660580          -26.27270
        5.805805           1.642172          -26.10852
        5.815815           1.624092          -25.94613
        5.825826           1.606332          -25.78551
        5.835835           1.588886          -25.62663
        5.845845           1.571746          -25.46945
        5.855855           1.554902          -25.31394
        5.865866           1.538347          -25.16009
        5.875876           1.522077          -25.00784
        5.885885           1.506083          -24.85721
        5.895895           1.490359          -24.70815
        5.905906           1.474896          -24.56059
        5.915915           1.459692          -24.41457
        5.925925           1.444739          -24.27004
        5.935935           1.430030          -24.12695
        5.945946           1.415562          -23.98534
        5.955956           1.401328          -23.84513
        5.965966           1.387323          -23.70631
        5.975976           1.373540          -23.56887
        5.985986           1.359977          -23.43279
        5.995996           1.346629          -23.29804
        6.006006           1.333487          -23.16459
        6.016016           1.320552          -23.03243
        6.026026           1.307816          -22.90154
        6.036036           1.295277          -22.77191
        6.046046           1.282928          -22.64351
        6.056056           1.270768          -22.51632
        6.066066           1.258790          -22.39032
        6.076076           1.246993          -22.26551
        6.086086           1.235371          -22.14184
        6.096096           1.223923          -22.01933
        6.106106           1.212643          -21.89794
        6.116116           1.201528          -21.77767
        6.126126           1.190575          -21.65847
        6.136136           1.179781          -21.54035
        6.146146           1.169143          -21.42330
        6.156156           1.158657          -21.30732
        6.166166           1.148321          -21.19234
        6.176176           1.138131          -21.07839
        6.186186           1.128085          -20.96545
        6.196196           1.118181          -20.85349
        6.206206           1.108414          -20.74251
        6.216216           1.098783          -20.63249
        6.226226           1.089286          -20.52342
        6.236236           1.079919          -20.41528
        6.246246           1.070679          -20.30808
        6.256256           1.061566          -20.20177
        6.266266           1.052576          -20.09637
        6.276276           1.043707          -19.99184
        6.286286           1.034958          -19.88820
        6.296296           1.026325          -19.78542
        6.306306           1.017807          -19.68350
        6.316316           1.009402          -19.58240
        6.326326           1.001107          -19.48215
        6.336336           0.992921          -19.38272
        6.346346           0.984843          -19.28407
        6.356356           0.976869          -19.18624
        6.366366           0.968998          -19.08919
        6.376376           0.961229          -18.99292
        6.386386           0.953560          -18.89742
        6.396396           0.945989          -18.80267
        6.406406           0.938513          -18.70866
        6.416416           0.931134          -18.61542
        6.426426           0.923846          -18.52288
        6.436436           0.916651          -18.43106
        6.446446           0.909546          -18.33996
        6.456456           0.902530          -18.24957
        6.466466           0.895601          -18.15986
        6.476476           0.888758          -18.07083
        6.486486           0.882000          -17.98248
        6.496496           0.875324          -17.89481
        6.506506           0.868731          -17.80779
        6.516516           0.862218          -17.72142
        6.526526           0.855785          -17.63570
        6.536536           0.849430          -17.55061
        6.546546           0.843152          -17.46616
        6.556556           0.836950          -17.38232
        6.566566           0.830823          -17.29910
        6.576576           0.824769          -17.21648
        6.586586           0.818788          -17.13446
        6.596596           0.812878          -17.05303
        6.606606           0.807039          -16.97219
        6.616616           0.801269          -16.89192
        6.626626           0.795568          -16.81224
        6.636636           0.789934          -16.73310
        6.646646           0.784367          -16.65454
        6.656656           0.778866          -16.57650
        6.666666           0.773429          -16.49903
        6.676676           0.768056          -16.42208
        6.686686           0.762746          -16.34569
        6.696696           0.757499          -16.26980
        6.706707           0.752312          -16.19444
        6.716716           0.747187          -16.11959
        6.726726           0.742121          -16.04525
        6.736736           0.737114          -15.97141
        6.746747           0.732165          -15.89806
        6.756756           0.727274          -15.82520
        6.766766           0.722440          -15.75285
        6.776776           0.717662          -15.68095
        6.786787           0.712939          -15.60954
        6.796796           0.708272          -15.53859
        6.806807           0.703658          -15.46809
        6.816816           0.699099          -15.39808
        6.826826           0.694592          -15.32850
        6.836837           0.690137          -15.25936
        6.846846           0.685735          -15.19068
        6.856857           0.681383          -15.12242
        6.866867           0.677083          -15.05459
        6.876876           0.672833          -14.98720
        6.886887           0.668632          -14.92023
        6.896896           0.664481          -14.85367
        6.906906           0.660378          -14.78752
        6.916917           0.656323          -14.72178
        6.926927           0.652317          -14.65644
        6.936936           0.648358          -14.59150
        6.946947           0.644446          -14.52695
        6.956956           0.640581          -14.46279
        6.966967           0.636761          -14.39901
        6.976976           0.632988          -14.33561
        6.986986           0.629260          -14.27259
        6.996997           0.625577          -14.20994
        7.007007           0.621939          -14.14765
        7.017016           0.618346          -14.08572
        7.027027           0.614797          -14.02415
        7.037036           0.611292          -13.96293
        7.047047           0.607830          -13.90206
        7.057057           0.604413          -13.84153
        7.067066           0.601038          -13.78134
        7.077077           0.597706          -13.72149
        7.087087           0.594418          -13.66197
        7.097096           0.591172          -13.60277
        7.107107           0.587968          -13.54390
        7.117116           0.584807          -13.48534
        7.127127           0.581688          -13.42710
        7.137137           0.578612          -13.36917
        7.147147           0.575578          -13.31155
        7.157157           0.572585          -13.25422
        7.167167           0.569635          -13.19719
        7.177176           0.566727          -13.14045
        7.187187           0.563861          -13.08401
        7.197196           0.561036          -13.02785
        7.207206           0.558255          -12.97197
        7.217217           0.555515          -12.91637
        7.227227           0.552817          -12.86104
        7.237237           0.550162          -12.80598
        7.247247           0.547550          -12.75118
        7.257257           0.544980          -12.69665
        7.267267           0.542454          -12.64236
        7.277277           0.539970          -12.58833
        7.287286           0.537531          -12.53455
        7.297297           0.535135          -12.48101
        7.307307           0.532783          -12.42771
        7.317317           0.530476          -12.37464
        7.327327           0.528214          -12.32180
        7.337337           0.525998          -12.26920
        7.347347           0.523827          -12.21681
        7.357357           0.521703          -12.16463
        7.367367           0.519626          -12.11268
        7.377377           0.517598          -12.06092
        7.387387           0.515617          -12.00938
        7.397398           0.513686          -11.95802
        7.407407           0.511805          -11.90688
        7.417417           0.509975          -11.85591
        7.427427           0.508197          -11.80512
        7.437437           0.506472          -11.75452
        7.447447           0.504801          -11.70409
        7.457457           0.503186          -11.65383
        7.467467           0.501627          -11.60374
        7.477477           0.500126          -11.55380
        7.487487           0.498684          -11.50400
        7.497497           0.497303          -11.45437
        7.507507           0.495984          -11.40487
        7.517517           0.494730          -11.35550
        7.527527           0.493542          -11.30626
        7.537537           0.492422          -11.25716
        7.547547           0.491373          -11.20816
        7.557557           0.490396          -11.15927
        7.567567           0.489495          -11.11049
        7.577577           0.488672          -11.06180
        7.587587           0.487929          -11.01320
        7.597597           0.487270          -10.96468
        7.607607           0.486698          -10.91624
        7.617618           0.486217          -10.86785
        7.627627           0.485830          -10.81953
        7.637637           0.485542          -10.77127
        7.647647           0.485357          -10.72303
        7.657657           0.485279          -10.67482
        7.667667           0.485314          -10.62664
        7.677677           0.485467          -10.57847
        7.687687           0.485744          -10.53029
        7.697698           0.486151          -10.48210
        7.707707           0.486695          -10.43390
        7.717717           0.487384          -10.38567
        7.727727           0.488226          -10.33737
        7.737737           0.489228          -10.28902
        7.747747           0.490401          -10.24060
        7.757757           0.491754          -10.19208
        7.767767           0.493299          -10.14346
        7.777778           0.495048          -10.09473
        7.787787           0.497012          -10.04585
        7.797797           0.499208          -9.996819
        7.807807           0.501650          -9.947607
        7.817817           0.504355          -9.898216
        7.827827           0.507341          -9.848600
        7.837838           0.510629          -9.798747
        7.847847           0.514241          -9.748634
        7.857858           0.518202          -9.698229
        7.867867           0.522537          -9.647514
        7.877877           0.527276          -9.596465
        7.887887           0.532454          -9.545037
        7.897897           0.538103          -9.493213
        7.907907           0.544265          -9.440947
        7.917918           0.550985          -9.388209
        7.927927           0.558310          -9.334969
        7.937938           0.566296          -9.281177
        7.947948           0.575003          -9.226791
        7.957957           0.584500          -9.171776
        7.967968           0.594864          -9.116070
        7.977977           0.606179          -9.059638
        7.987987           0.618541          -9.002420
        7.997998           0.632061          -8.944355
        8.008007           0.646858          -8.885400
        8.018017           0.663074          -8.825486
        8.028028           0.680866          -8.764546
        8.038037           0.700411          -8.702548
        8.048048           0.721916          -8.639394
        8.058058           0.745611          -8.575052
        8.068068           0.771764          -8.509455
        8.078078           0.800684          -8.442550
        8.088087           0.832718          -8.374327
        8.098097           0.868272          -8.304732
        8.108108           0.907815          -8.233785
        8.118117           0.951878          -8.161520
        8.128128           1.001086          -8.088017
        8.138138           1.056143          -8.013435
        8.148148           1.117870          -7.938017
        8.158158           1.187206          -7.862106
        8.168168           1.265204          -7.786238
        8.178178           1.353061          -7.711166
        8.188188           1.452104          -7.637910
        8.198197           1.563746          -7.567922
        8.208207           1.689472          -7.503106
        8.218218           1.830738          -7.446041
        8.228228           1.988765          -7.400079
        8.238238           2.164365          -7.369487
        8.248248           2.357457          -7.359598
        8.258258           2.566633          -7.376725
        8.268268           2.788451          -7.427949
        8.278277           3.016656          -7.520475
        8.288287           3.241709          -7.660537
        8.298298           3.450656          -7.851759
        8.308308           3.627913          -8.093144
        8.318318           3.757408          -8.377649
        8.328328           3.825536          -8.691564
        8.338338           3.824444          -9.016088
        8.348348           3.754090          -9.330449
        8.358357           3.622302          -9.615754
        8.368367           3.442628          -9.858317
        8.378378           3.231139          -10.05101
        8.388388           3.003436          -10.19280
        8.398398           2.772477          -10.28731
        8.408408           2.547879          -10.34071
        8.418418           2.335869          -10.36024
        8.428429           2.139908          -10.35297
        8.438437           1.961464          -10.32524
        8.448447           1.800581          -10.28236
        8.458458           1.656463          -10.22862
        8.468468           1.527894          -10.16739
        8.478477           1.413419          -10.10124
        8.488488           1.311550          -10.03208
        8.498498           1.220876          -9.961368
        8.508509           1.140061          -9.890128
        8.518518           1.067925          -9.819120
        8.528527           1.003399          -9.748873
        8.538538           0.945540          -9.679729
        8.548548           0.893542          -9.611952
        8.558558           0.846686          -9.545679
        8.568568           0.804350          -9.480995
        8.578578           0.766004          -9.417945
        8.588589           0.731175          -9.356527
        8.598598           0.699462          -9.296731
        8.608608           0.670513          -9.238504
        8.618618           0.644017          -9.181806
        8.628628           0.619712          -9.126586
        8.638638           0.597362          -9.072797
        8.648648           0.576762          -9.020349
        8.658658           0.557734          -8.969204
        8.668669           0.540119          -8.919287
        8.678679           0.523779          -8.870556
        8.688688           0.508591          -8.822952
        8.698698           0.494444          -8.776402
        8.708708           0.481245          -8.730872
        8.718718           0.468906          -8.686321
        8.728728           0.457350          -8.642680
        8.738738           0.446511          -8.599918
        8.748748           0.436325          -8.557986
        8.758759           0.426738          -8.516848
        8.768768           0.417702          -8.476475
        8.778779           0.409172          -8.436823
        8.788788           0.401107          -8.397859
        8.798798           0.393472          -8.359552
        8.808808           0.386233          -8.321872
        8.818818           0.379363          -8.284803
        8.828828           0.372832          -8.248313
        8.838839           0.366616          -8.212369
        8.848848           0.360694          -8.176965
        8.858859           0.355044          -8.142057
        8.868869           0.349649          -8.107645
        8.878878           0.344490          -8.073706
        8.888888           0.339553          -8.040207
        8.898898           0.334823          -8.007154
        8.908908           0.330287          -7.974520
        8.918919           0.325932          -7.942280
        8.928928           0.321748          -7.910437
        8.938939           0.317724          -7.878967
        8.948949           0.313850          -7.847861
        8.958959           0.310118          -7.817111
        8.968968           0.306519          -7.786690
        8.978978           0.303047          -7.756606
        8.988988           0.299692          -7.726837
        8.998999           0.296451          -7.697369
        9.009008           0.293315          -7.668206
        9.019018           0.290280          -7.639333
        9.029029           0.287340          -7.610743
        9.039039           0.284490          -7.582420
        9.049048           0.281726          -7.554369
        9.059058           0.279044          -7.526571
        9.069068           0.276438          -7.499033
        9.079079           0.273906          -7.471728
        9.089088           0.271445          -7.444666
        9.099098           0.269050          -7.417838
        9.109109           0.266718          -7.391234
        9.119119           0.264448          -7.364850
        9.129129           0.262235          -7.338679
        9.139138           0.260078          -7.312730
        9.149148           0.257974          -7.286977
        9.159159           0.255920          -7.261419
        9.169168           0.253915          -7.236067
        9.179178           0.251956          -7.210903
        9.189189           0.250042          -7.185924
        9.199199           0.248171          -7.161130
        9.209209           0.246340          -7.136519
        9.219219           0.244549          -7.112076
        9.229228           0.242796          -7.087813
        9.239239           0.241079          -7.063716
        9.249249           0.239397          -7.039783
        9.259258           0.237749          -7.016017
        9.269269           0.236134          -6.992405
        9.279279           0.234549          -6.968948
        9.289289           0.232995          -6.945654
        9.299299           0.231470          -6.922500
        9.309309           0.229973          -6.899499
        9.319319           0.228503          -6.876643
        9.329329           0.227059          -6.853932
        9.339338           0.225641          -6.831353
        9.349349           0.224247          -6.808919
        9.359359           0.222877          -6.786623
        9.369369           0.221530          -6.764454
        9.379379           0.220205          -6.742419
        9.389389           0.218901          -6.720513
        9.399399           0.217619          -6.698731
        9.409409           0.216356          -6.677079
        9.419418           0.215114          -6.655551
        9.429429           0.213890          -6.634142
        9.439439           0.212685          -6.612853
        9.449449           0.211498          -6.591683
        9.459459           0.210328          -6.570626
        9.469469           0.209175          -6.549689
        9.479479           0.208039          -6.528859
        9.489489           0.206919          -6.508144
        9.499498           0.205815          -6.487545
        9.509509           0.204726          -6.467043
        9.519519           0.203652          -6.446654
        9.529529           0.202592          -6.426371
        9.539539           0.201547          -6.406186
        9.549549           0.200515          -6.386113
        9.559559           0.199497          -6.366139
        9.569570           0.198491          -6.346256
        9.579578           0.197499          -6.326484
        9.589589           0.196519          -6.306802
        9.599599           0.195552          -6.287219
        9.609609           0.194596          -6.267735
        9.619619           0.193653          -6.248341
        9.629629           0.192720          -6.229041
        9.639639           0.191799          -6.209834
        9.649650           0.190889          -6.190716
        9.659659           0.189990          -6.171689
        9.669669           0.189101          -6.152750
        9.679679           0.188223          -6.133899
        9.689689           0.187355          -6.115136
        9.699699           0.186497          -6.096460
        9.709709           0.185648          -6.077865
        9.719719           0.184809          -6.059355
        9.729730           0.183980          -6.040926
        9.739739           0.183160          -6.022585
        9.749749           0.182349          -6.004320
        9.759759           0.181547          -5.986136
        9.769769           0.180753          -5.968030
        9.779779           0.179968          -5.950007
        9.789789           0.179192          -5.932061
        9.799799           0.178425          -5.914190
        9.809810           0.177665          -5.896393
        9.819819           0.176914          -5.878673
        9.829829           0.176171          -5.861028
        9.839839           0.175435          -5.843462
        9.849849           0.174708          -5.825962
        9.859859           0.173988          -5.808533
        9.869869           0.173275          -5.791177
        9.879879           0.172571          -5.773895
        9.889890           0.171874          -5.756679
        9.899899           0.171184          -5.739532
        9.909909           0.170501          -5.722458
        9.919919           0.169825          -5.705444
        9.929929           0.169157          -5.688503
        9.939939           0.168496          -5.671630
        9.949949           0.167841          -5.654818
        9.959959           0.167194          -5.638072
        9.969970           0.166553          -5.621389
        9.979980           0.165920          -5.604774
        9.989989           0.165293          -5.588218
        10.00000           0.164672          -5.571725
# 
# 09/17/2024 at 14:07 yambo_rt @ baym [start]
# 09/17/2024 at 14:07                 [end]
#
# .-Input file  yambo.in
# | optics                           # [R] Linear Response optical properties
# | bse                              # [R][BSE] Bethe Salpeter Equation.
# | BoseTemp= 0.000000         eV    # Bosonic Temperature
# | FFTGvecs=  387             RL    # [FFT] Plane-waves
# | BS_nCPU_LinAlg_INV= 1            # [PARALLEL] CPUs for Linear Algebra (if -1 it is automatically set)
# | BS_nCPU_LinAlg_DIAGO= 1          # [PARALLEL] CPUs for Linear Algebra (if -1 it is automatically set)
# | BSKmod= "IP"                     # [BSE] IP/Hartree/HF/ALDA/SEX/BSfxc
# | BSEmod= "retarded"               # [BSE] resonant/retarded/coupling
# | DipComputed= "R V P"             # [DIP] [default R P V; extra P2 Spin Orb]
# | BSENGexx= 2085             RL    # [BSK] Exchange components
# | % BSEQptR
# |  1 | 1 |                             # [BSK] Transferred momenta range
# | %
# | % BSEBands
# |   1 |  8 |                           # [BSK] Bands range
# | %
# | % BEnRange
# |   0.00000 | 10.00000 |         eV    # [BSS] Energy range
# | %
# | % BDmRange
# |  0.100000 | 0.100000 |         eV    # [BSS] Damping range
# | %
# | BEnSteps= 1000                   # [BSS] Energy steps
# | % BLongDir
# |  0.100000E-4 |  0.00000    |  0.00000    # [BSS] [cc] Electric Field
# | %
# | BSEprop= "abs jdos"              # [BSS] Can be any among abs/jdos/kerr/magn/dich/photolum/esrt
# | BSEdips= "none"                  # [BSS] Can be "trace/none" or "xy/xz/yz" to define off-diagonal rotation plane
