#                                                           
#  ____  ____     _       ____    ____  ______      ___     
# |_  _||_  _|   / \     |_   \  /   _||_   _ \   ."   `.   
#   \ \  / /    / _ \      |   \/   |    | |_) | /  .-.  \  
#    \ \/ /    / ___ \     | |\  /| |    |  __". | |   | |  
#    _|  |_  _/ /   \ \_  _| |_\/_| |_  _| |__) |\  `-"  /  
#   |______||____| |____||_____||_____||_______/  `.___."   
#                                                           
#                                                           
#                                                           
#        Version 4.3.0 Revision 15201 Hash 76636f9          
#                      MPI+SLK Build                        
#                http://www.yambo-code.org                  
#
# Absorption @ Q(1) [q->0 direction] :0.1000E-4  0.000     0.000   
#
#
# - Energies      are  E < 08_ypp_gw_10fs_Xonly_part2/ndb.QP_merged_1_gw_ppa_gw_ppa + E Fit
# - Wavefunctions are Slater exchange(X)+Perdew & Zunger(C)
#
# - The Green`s function is Retarded -
# - Using the Length Gauge -
# - [r,Vnl] *is* included -
#
#   BSK|Identifier              :2855
#      |Dimension               :72
#      |Bands                   :2 - 7
#      |Exchange           [res]: yes
#      |Correlation        [res]: yes
#      |Kernel`s coupling       : no
#      |Exchange           [cpl]: no
#      |Correlation        [cpl]: no
#      |W interaction is bare   : no
#      |ALDA kernel in R-space  : no
#      |RL vectors    [exchange]:531
#      |RL vectors [correlation]:59
#      |E/h energy range    [ev]:-1.000000 - -1.000000
#      |Coupling range     [o/o]: 100.0000 -  100.0000
#    W |Interaction is diagonal : no
#      |Matrix size             :59
#      |Bands                   :1 - 8
#      |e/h energy range    [ev]:-1.000000 - -1.000000
#      |Poles              [o/o]: 100.0000
#      |RL vectors in the sum   :387
#      |[r,Vnl] included        : yes
#      |Field direction         :0.1000E-4  0.000000  0.000000
#      |Coulomb Cutoff          :none
#      |xc-Kernel               :none
#   RIM|RL components      [col]:0
#      |Random points      [col]:0
#  
#   Haydock|Accuracy (requested) [o/o]:  0.02000
#          |Accuracy (reached)   [o/o]:   0.0023
#          |Iteration                 :11
#
#    E/ev[1]      EPS-Im[2]    EPS-Re[3]    EPSo-Im[4]   EPSo-Re[5]   EPS`-Im[6]   EPS`-Re[7]
#
     0.00000      0.00000     55.14452      0.00000     50.33015      0.00000     55.14452
   0.2004E-1    0.2538E-1     55.15       0.1918E-1     50.33       0.2538E-1     55.15   
   0.4008E-1    0.5077E-1     55.15       0.3837E-1     50.34       0.5077E-1     55.15   
     0.06012      0.07619     55.16729      0.05759     50.34740      0.07619     55.16729
     0.08016      0.10166     55.18501      0.07683     50.36077      0.10166     55.18501
     0.10020      0.12719     55.20783      0.09611     50.37804      0.12719     55.20783
     0.12024      0.15280     55.23574      0.11544     50.39915      0.15280     55.23574
     0.14028      0.17851     55.26876      0.13484     50.42409      0.17851     55.26876
     0.16032      0.20433     55.30692      0.15430     50.45296      0.20433     55.30692
     0.18036      0.23028     55.35024      0.17385     50.48564      0.23028     55.35024
     0.20040      0.25637     55.39875      0.19349     50.52232      0.25637     55.39875
     0.22044      0.28262     55.45247      0.21324     50.56290      0.28262     55.45247
     0.24048      0.30904     55.51144      0.23310     50.60741      0.30904     55.51144
     0.26052      0.33567     55.57570      0.25308     50.65591      0.33567     55.57570
     0.28056      0.36251     55.64528      0.27320     50.70842      0.36251     55.64528
     0.30060      0.38958     55.72023      0.29347     50.76493      0.38958     55.72023
     0.32064      0.41690     55.80060      0.31390     50.82550      0.41690     55.80060
     0.34068      0.44448     55.88644      0.33450     50.89017      0.44448     55.88644
     0.36072      0.47236     55.97780      0.35528     50.95895      0.47236     55.97780
     0.38076      0.50055     56.07475      0.37626     51.03194      0.50055     56.07475
     0.40080      0.52906     56.17736      0.39745     51.10908      0.52906     56.17736
     0.42084      0.55792     56.28566      0.41886     51.19049      0.55792     56.28566
     0.44088      0.58716     56.39975      0.44051     51.27620      0.58716     56.39975
     0.46092      0.61679     56.51970      0.46240     51.36623      0.61679     56.51970
     0.48096      0.64683     56.64560      0.48456     51.46067      0.64683     56.64560
     0.50100      0.67732     56.77752      0.50700     51.55954      0.67732     56.77752
     0.52104      0.70827     56.91554      0.52973     51.66291      0.70827     56.91554
     0.54108      0.73971     57.05978      0.55277     51.77085      0.73971     57.05978
     0.56112      0.77167     57.21033      0.57614     51.88340      0.77167     57.21033
     0.58116      0.80418     57.36728      0.59985     52.00064      0.80418     57.36728
     0.60120      0.83725     57.53077      0.62392     52.12263      0.83725     57.53077
     0.62124      0.87094     57.70088      0.64836     52.24946      0.87094     57.70088
     0.64128      0.90525     57.87776      0.67320     52.38120      0.90525     57.87776
     0.66132      0.94024     58.06153      0.69845     52.51794      0.94024     58.06153
     0.68136      0.97592     58.25232      0.72414     52.65974      0.97592     58.25232
     0.70140      1.01234     58.45027      0.75029     52.80668      1.01234     58.45027
     0.72144      1.04953     58.65554      0.77691     52.95889      1.04953     58.65554
     0.74148      1.08753     58.86827      0.80403     53.11641      1.08753     58.86827
     0.76152      1.12639     59.08863      0.83168     53.27943      1.12639     59.08863
     0.78156      1.16613     59.31680      0.85987     53.44796      1.16613     59.31680
     0.80160      1.20682     59.55296      0.88864     53.62218      1.20682     59.55296
     0.82164      1.24849     59.79727      0.91800     53.80217      1.24849     59.79727
     0.84168      1.29119     60.04996      0.94800     53.98808      1.29119     60.04996
     0.86172      1.33497     60.31124      0.97865     54.17997      1.33497     60.31124
     0.88176      1.37990     60.58130      1.00999     54.37806      1.37990     60.58130
     0.90180      1.42602     60.86038      1.04206     54.58242      1.42602     60.86038
     0.92184      1.47340     61.14874      1.07487     54.79326      1.47340     61.14874
     0.94188      1.52210     61.44661      1.10848     55.01069      1.52210     61.44661
     0.96192      1.57218     61.75425      1.14292     55.23483      1.57218     61.75425
     0.98196      1.62372     62.07196      1.17822     55.46590      1.62372     62.07196
     1.00200      1.67680     62.40002      1.21443     55.70407      1.67680     62.40002
     1.02204      1.73149     62.73874      1.25160     55.94955      1.73149     62.73874
     1.04208      1.78787     63.08844      1.28976     56.20246      1.78787     63.08843
     1.06212      1.84604     63.44946      1.32897     56.46302      1.84604     63.44946
     1.08216      1.90609     63.82217      1.36928     56.73150      1.90609     63.82217
     1.10220      1.96813     64.20692      1.41074     57.00808      1.96813     64.20692
     1.12224      2.03226     64.60413      1.45341     57.29297      2.03226     64.60413
     1.14228      2.09859     65.01422      1.49736     57.58643      2.09859     65.01422
     1.16232      2.16725     65.43761      1.54264     57.88871      2.16725     65.43761
     1.18236      2.23837     65.87479      1.58933     58.20010      2.23837     65.87479
     1.20240      2.31209     66.32623      1.63750     58.52089      2.31209     66.32623
     1.22244      2.38856     66.79246      1.68722     58.85132      2.38856     66.79246
     1.24248      2.46793     67.27402      1.73859     59.19173      2.46793     67.27402
     1.26252      2.55039     67.77148      1.79168     59.54246      2.55039     67.77148
     1.28257      2.63611     68.28550      1.84660     59.90385      2.63611     68.28550
     1.30261      2.72529     68.81667      1.90344     60.27630      2.72529     68.81667
     1.32265      2.81815     69.36572      1.96232     60.66010      2.81815     69.36572
     1.34269      2.91491     69.93335      2.02334     61.05576      2.91491     69.93334
     1.36273      3.01583     70.52036      2.08662     61.46362      3.01583     70.52035
     1.38277      3.12116     71.12755      2.15232     61.88416      3.12116     71.12755
     1.40281      3.23121     71.75582      2.22056     62.31788      3.23121     71.75582
     1.42285      3.34629     72.40609      2.29150     62.76532      3.34629     72.40609
     1.44289      3.46672     73.07935      2.36530     63.22691      3.46672     73.07935
     1.46293      3.59290     73.77667      2.44215     63.70330      3.59290     73.77667
     1.48297      3.72521     74.49918      2.52223     64.19508      3.72521     74.49918
     1.50301      3.86409     75.24806      2.60576     64.70290      3.86409     75.24806
     1.52305      4.01003     76.02465      2.69296     65.22739      4.01003     76.02465
     1.54309      4.16355     76.83030      2.78407     65.76936      4.16354     76.83029
     1.56313      4.32521     77.66650      2.87936     66.32951      4.32521     77.66650
     1.58317      4.49566     78.53484      2.97913     66.90870      4.49566     78.53484
     1.60321      4.67558     79.43707      3.08368     67.50779      4.67557     79.43707
     1.62325      4.86573     80.37498      3.19336     68.12772      4.86573     80.37498
     1.64329      5.06696     81.35060      3.30854     68.76947      5.06695     81.35060
     1.66333      5.28019     82.36607      3.42965     69.43423      5.28019     82.36607
     1.68337      5.50646     83.42371      3.55714     70.12305      5.50646     83.42371
     1.70341      5.74692     84.52604      3.69150     70.83723      5.74692     84.52602
     1.72345      6.00284     85.67576      3.83329     71.57803      6.00284     85.67575
     1.74349      6.27566     86.87586      3.98311     72.34699      6.27566     86.87586
     1.76353      6.56697     88.12956      4.14164     73.14561      6.56697     88.12955
     1.78357      6.87857     89.44038      4.30964     73.97559      6.87857     89.44038
     1.80361      7.21248     90.81214      4.48793     74.83882      7.21248     90.81214
     1.82365      7.57098     92.24906      4.67745     75.73710      7.57098     92.24905
     1.84369      7.95668     93.75575      4.87924     76.67274      7.95668     93.75575
     1.86373      8.37251     95.33728      5.09447     77.64796      8.37250     95.33727
     1.88377      8.82185     96.99921      5.32446     78.66544      8.82183     96.99921
     1.90381      9.30852     98.74770      5.57070     79.72787      9.30851     98.74770
      1.9238       9.8370     100.5896       5.8349      80.8383       9.8370     100.5895
      1.9439      10.4123     102.5323       6.1189      82.0001      10.4123     102.5323
      1.9639      11.0405     104.5844       6.4249      83.2169      11.0405     104.5844
      1.9840      11.7284     106.7550       6.7556      84.4928      11.7283     106.7550
      2.0040      12.4841     109.0548       7.1136      85.8323      12.4840     109.0547
      2.0240      13.3171     111.4952       7.5024      87.2403      13.3170     111.4951
      2.0441      14.2386     114.0893       7.9258      88.7223      14.2386     114.0893
      2.0641      15.2622     116.8520       8.3883      90.2843      15.2621     116.8519
      2.0842      16.4037     119.7996       8.8952      91.9334      16.4036     119.7995
      2.1042      17.6824     122.9508       9.4528      93.6771      17.6824     122.9507
      2.1242      19.1218     126.3266      10.0683      95.5238      19.1217     126.3265
      2.1443      20.7504     129.9508      10.7505      97.4833      20.7503     129.9507
      2.1643      22.6034     133.8501      11.5099      99.5661      22.6033     133.8500
      2.1844      24.7243     138.0545      12.3592     101.7846      24.7241     138.0544
      2.2044      27.1677     142.5977      13.3137     104.1523      27.1674     142.5975
      2.2244      30.0023     147.5167      14.3923     106.6846      30.0020     147.5165
      2.2445      33.3158     152.8519      15.6182     109.3989      33.3154     152.8517
      2.2645      37.2205     158.6457      17.0202     112.3146      37.2199     158.6455
      2.2846      41.8623     164.9405      18.6344     115.4533      41.8616     164.9402
      2.3046      47.4320     171.7734      20.5067     118.8389      47.4311     171.7732
      2.3246      54.1808     179.1672      22.6954     122.4968      54.1796     179.1670
      2.3447      62.4414     187.1133      25.2758     126.4537      62.4398     187.1131
      2.3647      72.6547     195.5399      28.3456     130.7352      72.6525     195.5399
      2.3848      85.4012     204.2562      32.0331     135.3624      85.3983     204.2565
      2.4048     101.4266     212.8513      36.5076     140.3447     101.4229     212.8522
      2.4248     121.6397     220.5243      41.9934     145.6670     121.6348     220.5263
      2.4449     147.0069     225.8121      48.7874     151.2664     147.0008     225.8162
      2.4649     178.2043     226.2285      57.2782     156.9899     178.1974     226.2358
      2.4850     214.7693     217.9936      67.9592     162.5209     214.7626     218.0059
      2.5050     253.5977     196.4787      81.4121     167.2552     253.5942     196.4975
      2.5250     287.4956     158.4718      98.2072     170.1128     287.5004     158.4962
      2.5451     306.3349     106.3507     118.6062     169.3125     306.3520     106.3759
      2.5651     302.9455      50.2161     141.9089     162.2905     302.9751      50.2346
      2.5852     279.1632       2.8866     165.4429     146.2621     279.1996       2.8926
      2.6052     244.1765     -28.2314     183.9761     120.0832     244.2125     -28.2386
      2.6253     207.4974     -43.3174     191.3658      86.8104     207.5289     -43.3348
      2.6453     174.7624     -46.5131     184.7791      53.7576     174.7875     -46.5370
      2.6653     147.9300     -42.2594     167.2103      28.1641     147.9484     -42.2871
      2.6854     126.9452     -33.8314     144.8413      12.9518     126.9580     -33.8614
      2.7054     111.0114     -23.2694     122.8555       6.8991     111.0192     -23.3007
      2.7255      99.2242     -11.7242     103.8733       7.2172      99.2273     -11.7563
     2.74549     90.81079      0.20508     88.57422     11.37002     90.80979      0.17214
     2.76553     85.18839     12.24169     76.70132     17.61058     85.18330     12.20800
     2.78557     81.95992     24.28538     67.70530     24.88986     81.95057     24.25075
     2.80561     80.89254     36.33170     61.03435     32.63162     80.87855     36.29592
     2.82565     81.90164     48.41696     56.23212     40.54585     81.88227     48.38000
     2.84569     85.04339     60.58547     52.95393     48.50713     85.01751     60.54733
     2.86573     90.51954     72.85263     50.95590     56.48219     90.48563     72.81335
     2.88577     98.69338     85.16242     50.07883     64.48856     98.64931     85.12273
      2.9058     110.1130      97.3161      50.2345      72.5714     110.0559      97.2773
      2.9259     125.5303     108.8527      51.3976      80.7902     125.4566     108.8179
      2.9459     145.8810     118.8500      53.6020      89.2095     145.7866     118.8242
      2.9659     172.1436     125.6129      56.9438      97.8926     172.0251     125.6058
      2.9860     204.8961     126.2779      61.5888     106.8914     204.7536     126.3042
      3.0060     243.2956     116.5770      67.7872     116.2336     243.1384     116.6569
      3.0261     283.3723      91.5297      75.8955     125.8966     283.2271      91.6816
      3.0461     316.6585      48.2618      86.4030     135.7641     316.5693      48.4856
      3.0661     332.1450      -9.4159      99.9615     145.5464     332.1548      -9.1572
      3.0862     323.2152     -69.6161     117.3978     154.6433     323.3297     -69.3843
      3.1062     293.3532    -118.8679     139.6639     161.9173     293.5350    -118.7096
      3.1263     252.9989    -150.4516     167.6160     165.3618     253.1987    -150.3753
      3.1463     211.9294    -165.5136     201.4081     161.7467     212.1136    -165.5018
      3.1663     175.5249    -168.7835     239.2538     146.6452     175.6800    -168.8129
      3.1864     145.4278    -164.9388     275.7514     115.7960     145.5527    -164.9911
      3.2064     121.3466    -157.3264     301.5225      68.6739     121.4450    -157.3900
      3.2265     102.3181    -148.0072     307.1505      12.2719     102.3951    -148.0751
      3.2465      87.3096    -138.1449     290.2744     -40.6514      87.3697    -138.2137
      3.2665      75.4302    -128.3543     257.7235     -79.6067      75.4770    -128.4221
      3.2866      65.9746    -118.9345     219.7099    -101.7861      66.0110    -119.0005
      3.3066      58.4043    -110.0102     183.7025    -110.2219      58.4324    -110.0742
      3.3267      52.3151    -101.6122     153.0282    -109.5611      52.3364    -101.6744
      3.3467      47.4054     -93.7223     128.2673    -103.6630      47.4210     -93.7829
      3.3667      43.4512     -86.2983     108.7923     -95.0841      43.4619     -86.3577
     3.38677     40.28707    -79.28738     93.65443    -85.33076     40.29346    -79.34595
     3.40681     37.79237    -72.63306     81.95557    -75.22392     37.79472    -72.69119
     3.42685     35.88169    -66.27877     72.96211    -65.17850     35.88013    -66.33690
     3.44689     34.49844    -60.16979     66.11302    -55.37902     34.49289    -60.22829
     3.46693     33.61095    -54.25395     60.99552    -45.88295     33.60118    -54.31327
     3.48697     33.21078    -48.48240     57.31620    -36.67949     33.19634    -48.54293
     3.50701     33.31302    -42.81033     54.87622    -27.72251     33.29320    -42.87244
     3.52705     33.95847    -37.19891     53.55447    -18.94840     33.93229    -37.26292
     3.54709     35.21821    -31.61880     53.29635    -10.28754     35.18428    -31.68488
     3.56713     37.20046    -26.05709     54.10947     -1.67112     37.15688    -26.12525
     3.58717     40.06009    -20.53028     56.06496      6.96056     40.00434    -20.59999
     3.60721     44.00953    -15.10756     59.30445     15.64822     43.93823    -15.17751
     3.62725     49.32686     -9.95259     64.05301     24.39591     49.23582    -10.01995
     3.64729     56.34932     -5.39388     70.63718     33.13965     56.23365     -5.45324
     3.66733     65.42282     -2.03387     79.50545     41.69318     65.27801     -2.07562
     3.68737     76.74095     -0.88745     91.23777     49.65010     76.56583     -0.89607
      3.7074      89.9809      -3.4564     106.5145      56.2251      89.7834      -3.4105
      3.7275     103.7039     -11.4652     125.9674      60.0153     103.5093     -11.3441
      3.7475     114.9035     -25.8438     149.7649      58.7379     114.7559     -25.6448
      3.7675     119.7638     -45.1367     176.7440      49.2073     119.7062     -44.8925
      3.7876     116.1160     -65.1233     203.1839      28.2262     116.1579     -64.8914
      3.8076     105.3236     -81.1759     222.3870      -4.9202     105.4338     -81.0015
      3.8277      91.0571     -91.0932     227.2711     -45.5758      91.1918     -90.9868
      3.8477      76.6585     -95.3632     215.5490     -84.5528      76.7874     -95.3115
      3.8677      63.9280     -95.6482     191.7789    -113.8268      64.0380     -95.6324
      3.8878      53.3933     -93.5568     163.4321    -130.8842      53.4823     -93.5617
      3.9078      44.9350     -90.2302     136.2129    -137.7219      45.0051     -90.2458
      3.9279      38.2133     -86.3677     112.7682    -137.7381      38.2682     -86.3881
      3.9479      32.8693     -82.3632      93.6296    -133.8369      32.9124     -82.3852
      3.9679      28.5949     -78.4244      78.3686    -127.9695      28.6289     -78.4462
      3.9880      25.1460     -74.6524      66.2832    -121.2978      25.1731     -74.6732
      4.0080      22.3357     -71.0895      56.6938    -114.4634      22.3575     -71.1090
      4.0281      20.0228     -67.7466      49.0354    -107.7985      20.0404     -67.7646
      4.0481      18.1006     -64.6184      42.8664    -101.4599      18.1150     -64.6350
     4.06814     16.48858    -61.69188     37.85091    -95.50887     16.50047    -61.70716
     4.08818     15.12528    -58.95082     33.73531    -89.95552     15.13516    -58.96486
     4.10822     13.96352    -56.37823     30.32859    -84.78468     13.97181    -56.39117
     4.12826     12.96679    -53.95767     27.48601    -79.96899     12.97377    -53.96961
     4.14830     12.10652    -51.67370     25.09727    -75.47669     12.11245    -51.68476
     4.16834     11.36022    -49.51217     23.07761    -71.27518     11.36528    -49.52245
     4.18838     10.71003    -47.46025     21.36142    -67.33315     10.71437    -47.46984
     4.20842     10.14165    -45.50637     19.89750    -63.62144     10.14539    -45.51536
     4.22846      9.64356    -43.64013     18.64564    -60.11328      9.64680    -43.64857
     4.24850      9.20646    -41.85212     17.57411    -56.78436      9.20926    -41.86008
     4.26854      8.82275    -40.13381     16.65773    -53.61253      8.82519    -40.14135
     4.28858      8.48627    -38.47755     15.87654    -50.57774      8.48839    -38.48471
     4.30862      8.19197    -36.87626     15.21472    -47.66162      8.19381    -36.88309
     4.32866      7.93575    -35.32346     14.65984    -44.84728      7.93735    -35.33002
     4.34870      7.71430    -33.81321     14.20227    -42.11909      7.71569    -33.81951
     4.36874      7.52495    -32.33990     13.83477    -39.46239      7.52615    -32.34599
     4.38878      7.36562    -30.89827     13.55218    -36.86330      7.36664    -30.90416
     4.40882      7.23472    -29.48333     13.35123    -34.30844      7.23559    -29.48904
     4.42886      7.13113    -28.09026     13.23044    -31.78483      7.13186    -28.09583
     4.44890      7.05414    -26.71439     13.19005    -29.27962      7.05474    -26.71985
     4.46894      7.00344    -25.35114     13.23213    -26.77989      7.00391    -25.35650
     4.48898      6.97911    -23.99593     13.36066    -24.27250      6.97947    -24.00121
     4.50902      6.98165    -22.64418     13.58177    -21.74392      6.98190    -22.64942
     4.52906      7.01198    -21.29117     13.90411    -19.17982      7.01211    -21.29637
     4.54910      7.07145    -19.93207     14.33929    -16.56519      7.07147    -19.93725
     4.56914      7.16196    -18.56184     14.90263    -13.88392      7.16187    -18.56702
     4.58918      7.28597    -17.17514     15.61395    -11.11872      7.28575    -17.18034
     4.60922      7.44661    -15.76629     16.49897     -8.25102      7.44626    -15.77155
     4.62926      7.64781    -14.32920     17.59092     -5.26086      7.64733    -14.33452
     4.64930      7.89447    -12.85723     18.93288     -2.12733      7.89386    -12.86262
     4.66934      8.19268    -11.34309     20.58107      1.17101      8.19191    -11.34860
     4.68938      8.54996     -9.77882     22.60911      4.65447      8.54900     -9.78447
     4.70942      8.97563     -8.15560     25.11413      8.33959      8.97448     -8.16139
     4.72946      9.48135     -6.46361     28.22495     12.23363      9.47996     -6.46960
     4.74950     10.08166     -4.69200     32.11288     16.32473     10.08000     -4.69823
     4.76954     10.79487     -2.82873     37.00519     20.56376     10.79290     -2.83520
     4.78958     11.64423     -0.86059     43.19994     24.83199     11.64187     -0.86736
     4.80962     12.65937      1.22680     51.07598     28.88428     12.65655      1.21967
     4.82966     13.87846      3.44847     61.08074     32.25380     13.87509      3.44099
     4.84970     15.35111      5.81969     73.65394     34.10653     15.34704      5.81177
     4.86974     17.14214      8.35406     88.99950     33.06683     17.13721      8.34568
      4.8898      19.3371      11.0609     106.5823      27.1515      19.3311      11.0520
      4.9098      22.0494      13.9396     124.3481      14.1985      22.0419      13.9303
      4.9299      25.4294      16.9696     138.2594      -6.7032      25.4202      16.9598
      4.9499      29.6761      20.0924     143.5509     -33.2290      29.6645      20.0824
      4.9699      35.0473      23.1794     137.9864     -59.7427      35.0328      23.1695
      4.9900      41.8625      25.9757     123.8392     -80.6277      41.8442      25.9667
      5.0100      50.4773      28.0107     105.8812     -93.5944      50.4544      28.0038
     5.03006     61.18312     28.46988     88.13289    -99.57568     61.15506     28.46743
      5.0501      73.9482      26.0752      72.6303    -100.7372      73.9156      26.0805
     5.07014     87.91853     19.15309     59.89783    -99.05752     87.88433     19.16991
      5.0902     100.8224       6.2734      49.7269     -95.9074     100.7929       6.3041
      5.1102     109.0560     -12.3201      41.6764     -92.1172     109.0395     -12.2787
      5.1303     109.4663     -33.5363      35.2987     -88.1520     109.4674     -33.4930
      5.1503     101.8618     -52.6148      30.2149     -84.2562     101.8778     -52.5789
     5.17034     89.18759    -66.18062     26.12697    -80.54885     89.21075    -66.15669
     5.19038     75.11575    -73.72171     22.80742    -77.07973     75.13956    -73.70872
     5.21042     62.08479    -76.57048     20.08450    -73.86179     62.10595    -76.56512
     5.23046     51.07236    -76.41899     17.82876    -70.88922     51.08974    -76.41829
     5.25050     42.16856    -74.59639     15.94227    -68.14715     42.18237    -74.59821
     5.27054     35.09988    -71.96144     14.35043    -65.61702     35.11069    -71.96445
     5.29058     29.51067    -69.01466     12.99590    -63.27956     29.51914    -69.01814
     5.31062     25.07550    -66.02865     11.83426    -61.11621     25.08219    -66.03223
     5.33066     21.52979    -63.14258     10.83078    -59.10957     21.53507    -63.14600
     5.35070     18.66878    -60.42083      9.95807    -57.24402     18.67300    -60.42404
     5.37074     16.33713    -57.88708      9.19426    -55.50538     16.34054    -57.89004
     5.39078     14.41791    -55.54385      8.52186    -53.88115     14.42070    -55.54657
     5.41082     12.82286    -53.38298      7.92672    -52.36018     12.82515    -53.38546
     5.43086     11.48498    -51.39152      7.39727    -50.93267     11.48687    -51.39376
     5.45090     10.35308    -49.55482      6.92404    -49.58987     10.35466    -49.55685
     5.47094      9.38768    -47.85824      6.49918    -48.32409      9.38901    -47.86009
     5.49098      8.55807    -46.28790      6.11617    -47.12851      8.55919    -46.28959
     5.51102      7.84013    -44.83107      5.76956    -45.99706      7.84109    -44.83261
     5.53106      7.21479    -43.47628      5.45473    -44.92433      7.21562    -43.47769
     5.55110      6.66679    -42.21325      5.16780    -43.90552      6.66750    -42.21454
     5.57114      6.18384    -41.03289      4.90546    -42.93631      6.18446    -41.03408
     5.59118      5.75599    -39.92714      4.66488    -42.01288      5.75653    -39.92824
     5.61122      5.37508    -38.88887      4.44362    -41.13172      5.37555    -38.88989
     5.63126      5.03441    -37.91180      4.23958    -40.28975      5.03482    -37.91275
     5.65130      4.72842    -36.99033      4.05094    -39.48419      4.72878    -36.99122
     5.67134      4.45247    -36.11954      3.87612    -38.71244      4.45278    -36.12037
     5.69138      4.20267    -35.29504      3.71375    -37.97227      4.20295    -35.29582
     5.71142      3.97574    -34.51292      3.56260    -37.26151      3.97598    -34.51365
     5.73146      3.76889    -33.76970      3.42161    -36.57826      3.76911    -33.77040
     5.75150      3.57977    -33.06228      3.28985    -35.92085      3.57996    -33.06294
     5.77154      3.40633    -32.38788      3.16649    -35.28765      3.40650    -32.38851
     5.79158      3.24683    -31.74397      3.05078    -34.67718      3.24698    -31.74457
     5.81162      3.09976    -31.12833      2.94206    -34.08813      3.09989    -31.12890
     5.83166      2.96380    -30.53890      2.83976    -33.51925      2.96392    -30.53945
     5.85170      2.83783    -29.97386      2.74334    -32.96944      2.83793    -29.97440
     5.87174      2.72084    -29.43155      2.65234    -32.43768      2.72092    -29.43206
     5.89178      2.61196    -28.91043      2.56633    -31.92292      2.61203    -28.91093
     5.91182      2.51042    -28.40915      2.48493    -31.42433      2.51048    -28.40964
     5.93186      2.41555    -27.92645      2.40779    -30.94106      2.41559    -27.92693
     5.95190      2.32673    -27.46117      2.33461    -30.47235      2.32676    -27.46164
     5.97194      2.24345    -27.01227      2.26509    -30.01746      2.24346    -27.01274
     5.99198      2.16521    -26.57878      2.19899    -29.57575      2.16521    -26.57924
     6.01202      2.09161    -26.15981      2.13606    -29.14657      2.09159    -26.16027
     6.03206      2.02226    -25.75455      2.07610    -28.72937      2.02222    -25.75501
     6.05210      1.95681    -25.36225      2.01890    -28.32359      1.95675    -25.36271
     6.07214      1.89497    -24.98220      1.96428    -27.92871      1.89489    -24.98266
     6.09218      1.83647    -24.61377      1.91209    -27.54428      1.83634    -24.61423
     6.11222      1.78104    -24.25635      1.86217    -27.16981      1.78087    -24.25681
     6.13226      1.72846    -23.90941      1.81438    -26.80492      1.72825    -23.90986
     6.15230      1.67854    -23.57242      1.76860    -26.44920      1.67827    -23.57285
     6.17234      1.63108    -23.24492      1.72469    -26.10227      1.63075    -23.24530
     6.19238      1.58590    -22.92646      1.68257    -25.76376      1.58551    -22.92678
     6.21242      1.54283    -22.61663      1.64211    -25.43339      1.54240    -22.61686
     6.23246      1.50172    -22.31501      1.60324    -25.11080      1.50128    -22.31515
     6.25250      1.46242    -22.02123      1.56586    -24.79572      1.46201    -22.02127
     6.27254      1.42485    -21.73492      1.52989    -24.48785      1.42449    -21.73490
     6.29258      1.38890    -21.45577      1.49527    -24.18693      1.38860    -21.45570
     6.31262      1.35448    -21.18347      1.46190    -23.89269      1.35424    -21.18338
     6.33266      1.32151    -20.91774      1.42974    -23.60493      1.32131    -20.91765
     6.35271      1.28990    -20.65833      1.39872    -23.32339      1.28974    -20.65824
     6.37275      1.25957    -20.40499      1.36877    -23.04787      1.25944    -20.40490
     6.39279      1.23044    -20.15748      1.33987    -22.77817      1.23034    -20.15740
     6.41283      1.20246    -19.91557      1.31194    -22.51406      1.20237    -19.91550
     6.43287      1.17554    -19.67906      1.28494    -22.25539      1.17547    -19.67900
     6.45291      1.14964    -19.44774      1.25883    -22.00197      1.14958    -19.44769
     6.47295      1.12470    -19.22143      1.23357    -21.75362      1.12465    -19.22139
     6.49299      1.10067    -18.99994      1.20912    -21.51021      1.10063    -18.99990
     6.51303      1.07750    -18.78311      1.18544    -21.27154      1.07746    -18.78307
     6.53307      1.05514    -18.57076      1.16250    -21.03750      1.05511    -18.57073
     6.55311      1.03356    -18.36275      1.14027    -20.80792      1.03354    -18.36272
     6.57315      1.01272    -18.15892      1.11871    -20.58269      1.01270    -18.15890
     6.59319      0.99258    -17.95915      1.09779    -20.36167      0.99256    -17.95913
     6.61323      0.97311    -17.76328      1.07750    -20.14471      0.97309    -17.76327
     6.63327      0.95427    -17.57121      1.05780    -19.93174      0.95425    -17.57120
     6.65331      0.93603    -17.38280      1.03867    -19.72261      0.93602    -17.38279
     6.67335      0.91838    -17.19794      1.02009    -19.51723      0.91837    -17.19793
     6.69339      0.90128    -17.01652      1.00203    -19.31548      0.90127    -17.01652
     6.71343      0.88470    -16.83844      0.98447    -19.11727      0.88469    -16.83843
     6.73347      0.86863    -16.66358      0.96740    -18.92249      0.86863    -16.66358
     6.75351      0.85305    -16.49187      0.95079    -18.73105      0.85304    -16.49186
     6.77355      0.83792    -16.32320      0.93463    -18.54287      0.83791    -16.32319
     6.79359      0.82324    -16.15747      0.91890    -18.35786      0.82323    -16.15747
     6.81363      0.80898    -15.99463      0.90359    -18.17593      0.80897    -15.99463
     6.83367      0.79513    -15.83457      0.88868    -17.99700      0.79512    -15.83456
     6.85371      0.78167    -15.67722      0.87415    -17.82100      0.78166    -15.67722
     6.87375      0.76858    -15.52250      0.85999    -17.64786      0.76858    -15.52251
     6.89379      0.75585    -15.37035      0.84620    -17.47749      0.75585    -15.37035
     6.91383      0.74347    -15.22069      0.83274    -17.30984      0.74347    -15.22069
     6.93387      0.73143    -15.07345      0.81963    -17.14482      0.73142    -15.07346
     6.95391      0.71970    -14.92858      0.80683    -16.98238      0.71970    -14.92858
     6.97395      0.70828    -14.78600      0.79434    -16.82246      0.70828    -14.78601
     6.99399      0.69716    -14.64567      0.78216    -16.66500      0.69716    -14.64568
     7.01403      0.68633    -14.50752      0.77027    -16.50992      0.68633    -14.50752
     7.03407      0.67577    -14.37149      0.75866    -16.35719      0.67577    -14.37150
     7.05411      0.66548    -14.23754      0.74732    -16.20674      0.66548    -14.23754
     7.07415      0.65544    -14.10561      0.73625    -16.05852      0.65544    -14.10562
     7.09419      0.64566    -13.97565      0.72543    -15.91248      0.64566    -13.97565
     7.11423      0.63611    -13.84761      0.71486    -15.76858      0.63611    -13.84762
     7.13427      0.62680    -13.72145      0.70452    -15.62675      0.62679    -13.72145
     7.15431      0.61771    -13.59713      0.69442    -15.48697      0.61770    -13.59713
     7.17435      0.60883    -13.47458      0.68455    -15.34916      0.60883    -13.47459
     7.19439      0.60017    -13.35379      0.67489    -15.21331      0.60017    -13.35380
     7.21443      0.59171    -13.23470      0.66545    -15.07936      0.59171    -13.23471
     7.23447      0.58344    -13.11727      0.65621    -14.94727      0.58344    -13.11728
     7.25451      0.57537    -13.00147      0.64718    -14.81700      0.57537    -13.00148
     7.27455      0.56748    -12.88727      0.63833    -14.68851      0.56748    -12.88728
     7.29459      0.55977    -12.77462      0.62968    -14.56178      0.55977    -12.77462
     7.31463      0.55223    -12.66348      0.62121    -14.43674      0.55223    -12.66349
     7.33467      0.54487    -12.55383      0.61291    -14.31338      0.54486    -12.55384
     7.35471      0.53766    -12.44563      0.60479    -14.19164      0.53766    -12.44564
     7.37475      0.53062    -12.33885      0.59684    -14.07153      0.53062    -12.33887
     7.39479      0.52373    -12.23346      0.58905    -13.95297      0.52372    -12.23347
     7.41483      0.51699    -12.12944      0.58143    -13.83595      0.51698    -12.12944
     7.43487      0.51039    -12.02673      0.57395    -13.72044      0.51039    -12.02674
     7.45491      0.50394    -11.92533      0.56663    -13.60641      0.50394    -11.92534
     7.47495      0.49763    -11.82520      0.55946    -13.49381      0.49763    -11.82522
     7.49499      0.49145    -11.72632      0.55243    -13.38264      0.49145    -11.72634
     7.51503      0.48540    -11.62866      0.54554    -13.27286      0.48540    -11.62867
     7.53507      0.47948    -11.53219      0.53879    -13.16443      0.47948    -11.53221
     7.55511      0.47368    -11.43689      0.53217    -13.05734      0.47368    -11.43690
     7.57515      0.46801    -11.34274      0.52568    -12.95156      0.46801    -11.34275
     7.59519      0.46246    -11.24970      0.51932    -12.84706      0.46246    -11.24971
     7.61523      0.45702    -11.15776      0.51308    -12.74383      0.45702    -11.15777
     7.63527      0.45169    -11.06689      0.50697    -12.64182      0.45169    -11.06691
     7.65531      0.44648    -10.97708      0.50097    -12.54102      0.44648    -10.97710
     7.67535      0.44137    -10.88830      0.49509    -12.44140      0.44137    -10.88831
     7.69539      0.43637    -10.80052      0.48932    -12.34296      0.43637    -10.80054
     7.71543      0.43147    -10.71374      0.48367    -12.24565      0.43147    -10.71375
     7.73547      0.42668    -10.62792      0.47812    -12.14946      0.42668    -10.62793
     7.75551      0.42198    -10.54305      0.47268    -12.05436      0.42198    -10.54307
     7.77555      0.41739    -10.45911      0.46734    -11.96035      0.41738    -10.45912
     7.79559      0.41288    -10.37608      0.46211    -11.86738      0.41288    -10.37609
     7.81563      0.40848    -10.29393      0.45697    -11.77546      0.40847    -10.29395
     7.83567      0.40416    -10.21266      0.45193    -11.68456      0.40416    -10.21267
     7.85571      0.39993    -10.13224      0.44700    -11.59464      0.39993    -10.13226
     7.87575      0.39580    -10.05266      0.44215    -11.50571      0.39580    -10.05267
     7.89579      0.39175     -9.97389      0.43740    -11.41773      0.39175     -9.97390
     7.91583      0.38779     -9.89593      0.43274    -11.33070      0.38779     -9.89594
     7.93587      0.38392     -9.81874      0.42817    -11.24458      0.38391     -9.81876
     7.95591      0.38013     -9.74233      0.42369    -11.15938      0.38012     -9.74234
     7.97595      0.37642     -9.66666      0.41930    -11.07506      0.37642     -9.66668
     7.99599      0.37280     -9.59173      0.41500    -10.99160      0.37279     -9.59175
     8.01603      0.36925     -9.51751      0.41078    -10.90900      0.36925     -9.51753
     8.03607      0.36579     -9.44400      0.40664    -10.82724      0.36579     -9.44402
     8.05611      0.36242     -9.37117      0.40259    -10.74629      0.36241     -9.37118
     8.07615      0.35912     -9.29900      0.39863    -10.66615      0.35911     -9.29902
     8.09619      0.35590     -9.22749      0.39474    -10.58679      0.35589     -9.22751
     8.11623      0.35276     -9.15662      0.39094    -10.50821      0.35276     -9.15664
     8.13627      0.34970     -9.08637      0.38722    -10.43037      0.34970     -9.08639
     8.15631      0.34672     -9.01672      0.38358    -10.35327      0.34672     -9.01674
     8.17635      0.34382     -8.94766      0.38002    -10.27690      0.34382     -8.94769
     8.19639      0.34100     -8.87918      0.37654    -10.20123      0.34099     -8.87920
     8.21643      0.33826     -8.81126      0.37315    -10.12625      0.33825     -8.81128
     8.23647      0.33560     -8.74387      0.36983    -10.05193      0.33560     -8.74389
    8.256513     0.333022    -8.677014     0.366596    -9.978287     0.333019    -8.677037
    8.276553     0.330528    -8.610666     0.363445    -9.905272     0.330525    -8.610690
    8.296593     0.328119    -8.544815     0.360376    -9.832893     0.328115    -8.544838
    8.316633     0.325794    -8.479436     0.357392    -9.761107     0.325790    -8.479461
    8.336673     0.323556    -8.414519     0.354492    -9.689921     0.323552    -8.414544
    8.356713     0.321407    -8.350043     0.351680    -9.619304     0.321403    -8.350070
    8.376753     0.319348    -8.285997     0.348956    -9.549260     0.319344    -8.286024
    8.396793     0.317383    -8.222354     0.346323    -9.479744     0.317379    -8.222382
    8.416833     0.315514    -8.159103     0.343782    -9.410750     0.315509    -8.159133
    8.436873     0.313743    -8.096222     0.341337    -9.342268     0.313738    -8.096251
    8.456913     0.312075    -8.033691     0.338991    -9.274273     0.312070    -8.033722
    8.476954     0.310513    -7.971490     0.336747    -9.206740     0.310507    -7.971521
    8.496993     0.309062    -7.909602     0.334610    -9.139654     0.309056    -7.909634
    8.517034     0.307726    -7.847996     0.332585    -9.072996     0.307720    -7.848031
    8.537074     0.306512    -7.786662     0.330677    -9.006740     0.306505    -7.786697
    8.557114     0.305425    -7.725569     0.328891    -8.940866     0.305417    -7.725606
    8.577154     0.304471    -7.664690     0.327237    -8.875346     0.304463    -7.664728
    8.597194     0.303660    -7.604005     0.325720    -8.810169     0.303652    -7.604045
    8.617234     0.303000    -7.543480     0.324352    -8.745291     0.302991    -7.543522
    8.637274     0.302500    -7.483092     0.323142    -8.680696     0.302490    -7.483135
    8.657314     0.302172    -7.422806     0.322103    -8.616343     0.302161    -7.422851
    8.677354     0.302027    -7.362591     0.321248    -8.552212     0.302016    -7.362638
    8.697394     0.302081    -7.302409     0.320595    -8.488262     0.302069    -7.302459
    8.717434     0.302349    -7.242228     0.320161    -8.424457     0.302336    -7.242279
    8.737474     0.302849    -7.181997     0.319969    -8.360744     0.302835    -7.182054
    8.757514     0.303602    -7.121684     0.320043    -8.297101     0.303586    -7.121741
    8.777555     0.304630    -7.061234     0.320413    -8.233465     0.304612    -7.061294
    8.797595     0.305960    -7.000600     0.321113    -8.169795     0.305941    -7.000661
    8.817636     0.307623    -6.939716     0.322183    -8.106019     0.307603    -6.939784
    8.837675     0.309654    -6.878533     0.323671    -8.042078     0.309632    -6.878605
    8.857716     0.312093    -6.816976     0.325632    -7.977909     0.312068    -6.817050
    8.877755     0.314985    -6.754974     0.328133    -7.913414     0.314958    -6.755054
    8.897796     0.318386    -6.692441     0.331254    -7.848520     0.318356    -6.692527
    8.917835     0.322358    -6.629294     0.335092    -7.783125     0.322325    -6.629385
    8.937876     0.326974    -6.565423     0.339763    -7.717109     0.326937    -6.565518
    8.957915     0.332320    -6.500724     0.345410    -7.650355     0.332279    -6.500828
    8.977956     0.338498    -6.435066     0.352206    -7.582716     0.338453    -6.435177
    8.997995     0.345629    -6.368315     0.360367    -7.514035     0.345578    -6.368434
    9.018035     0.353857    -6.300307     0.370163    -7.444139     0.353799    -6.300435
    9.038075     0.363354    -6.230868     0.381933    -7.372814     0.363289    -6.231006
    9.058115     0.374328    -6.159800     0.396103    -7.299856     0.374254    -6.159950
    9.078156     0.387034    -6.086876     0.413223    -7.225025     0.386949    -6.087038
    9.098196     0.401779    -6.011843     0.433998    -7.148084     0.401683    -6.012019
    9.118237     0.418947    -5.934408     0.459351    -7.068782     0.418836    -5.934600
    9.138276     0.439009    -5.854259     0.490487    -6.986944     0.438880    -5.854468
    9.158317     0.462560    -5.771022     0.529003    -6.902471     0.462409    -5.771251
    9.178356     0.490345    -5.684305     0.577014    -6.815509     0.490168    -5.684556
    9.198397     0.523320    -5.593662     0.637331    -6.726644     0.523109    -5.593937
    9.218436     0.562703    -5.498635     0.713630    -6.637290     0.562451    -5.498938
    9.238477     0.610084    -5.398752     0.810612    -6.550380     0.609780    -5.399086
    9.258516     0.667529    -5.293600     0.933860    -6.471521     0.667161    -5.293963
    9.278557     0.737776    -5.182889     1.089007    -6.410763     0.737324    -5.183283
    9.298596     0.824433    -5.066661     1.279035    -6.384820     0.823873    -5.067086
    9.318637     0.932307    -4.945576     1.498319    -6.418132     0.931607    -4.946023
    9.338676     1.067730    -4.821526     1.722899    -6.538214     1.066846    -4.821978
    9.358717     1.238926    -4.698624     1.903805    -6.758820     1.237805    -4.699046
    9.378757     1.456060    -4.585015     1.980415    -7.054592     1.454638    -4.585339
    9.398798     1.730461    -4.495722     1.920462    -7.356854     1.728671    -4.495831
    9.418838     2.071351    -4.456740     1.748296    -7.592855     2.069160    -4.456433
    9.438877     2.477640    -4.508804     1.523153    -7.729835     2.475128    -4.507794
    9.458918     2.921987    -4.705206     1.297419    -7.777120     2.919436    -4.703158
    9.478957     3.331815    -5.091262     1.098722    -7.761580     3.329825    -5.088023
    9.498998     3.592404    -5.658826     0.934806    -7.708664     3.591716    -5.654728
    9.519037     3.603771    -6.309048     0.803517    -7.636271     3.604752    -6.304942
    9.539078     3.360473    -6.890535     0.699388    -7.555316     3.362782    -6.887311
    9.559117     2.956573    -7.296364     0.616746    -7.471977     2.959467    -7.294383
    9.579158     2.508748    -7.510751     0.550732    -7.389496     2.511592    -7.509865
    9.599197     2.094312    -7.576236     0.497521    -7.309479     2.096792    -7.576103
    9.619238     1.744122    -7.546627     0.454178    -7.232595     1.746156    -7.546935
    9.639277     1.460968    -7.464122     0.418495    -7.159040     1.462591    -7.464655
    9.659318     1.236093    -7.355952     0.388803    -7.088769     1.237380    -7.356585
    9.679358     1.058208    -7.238004     0.363843    -7.021594     1.059229    -7.238661
    9.699399     0.916956    -7.118913     0.342655    -6.957275     0.917770    -7.119554
    9.719439     0.803944    -7.003092     0.324503    -6.895582     0.804599    -7.003703
    9.739479     0.712660    -6.892578     0.308816    -6.836273     0.713192    -6.893148
    9.759519     0.638183    -6.788132     0.295149    -6.779136     0.638620    -6.788661
    9.779559     0.576793    -6.689822     0.283151    -6.723965     0.577154    -6.690313
    9.799599     0.525691    -6.597400     0.272543    -6.670591     0.525993    -6.597853
    9.819639     0.482748    -6.510445     0.263101    -6.618841     0.483002    -6.510866
    9.839679     0.446340    -6.428503     0.254644    -6.568587     0.446556    -6.428892
    9.859718     0.415214    -6.351105     0.247025    -6.519702     0.415399    -6.351465
    9.879759     0.388392    -6.277806     0.240122    -6.472061     0.388552    -6.278143
    9.899798     0.365114    -6.208214     0.233837    -6.425583     0.365252    -6.208527
    9.919839     0.344769    -6.141954     0.228085    -6.380174     0.344890    -6.142249
    9.939879     0.326877    -6.078712     0.222798    -6.335753     0.326983    -6.078987
    9.959920     0.311047    -6.018190     0.217917    -6.292254     0.311140    -6.018448
    9.979959     0.296962    -5.960139     0.213393    -6.249626     0.297044    -5.960385
    10.00000      0.28436     -5.90433      0.20918     -6.20780      0.28444     -5.90456
# 
# 01/04/2018 at 13:46 YAMBO_RT @ narro [start]
# 01/04/2018 at 13:46                  [end]
#  
# Timing   [Min/Max/Average]: 01s/01s/01s
#
# .-Input file : yambo.in
# | optics                         # [R OPT] Optics
# | bse                            # [R BSE] Bethe Salpeter Equation.
# | bsk                            # [R BSK] Bethe Salpeter Equation kernel
# | bss                            # [R BSS] Bethe Salpeter Equation solver
# | em1s                           # [R Xs] Static Inverse Dielectric Matrix
# | BoseTemp= 0.000000     eV      # Bosonic Temperature
# | FFTGvecs=  387         RL      # [FFT] Plane-waves
# | Chimod= "hartree"              # [X] IP/Hartree/ALDA/LRC/BSfxc
# | BSEmod= "retarded"             # [BSE] resonant/retarded/coupling
# | BSKmod= "SEX"                  # [BSE] IP/Hartree/HF/ALDA/SEX/BSfxc
# | BSSmod= "h"                    # [BSS] (h)aydock/(d)iagonalization/(i)nversion/(t)ddft`
# | BSENGexx=  531         RL      # [BSK] Exchange components
# | BSENGBlk=  59          RL      # [BSK] Screened interaction block size
# | #WehCpl                        # [BSK] eh interaction included also in coupling
# | KfnQPdb= "E < 08_ypp_gw_10fs_Xonly_part2/ndb.QP_merged_1_gw_ppa_gw_ppa" # [EXTQP BSK BSS] Database
# | % BEnRange
# |   0.00000 | 10.00000 | eV      # [BSS] Energy range
# | %
# | % BDmRange
# |   0.10000 |  0.10000 | eV      # [BSS] Damping range
# | %
# | BEnSteps=  500                 # [BSS] Energy steps
# | % BLongDir
# | 0.1000E-4 | 0.000    | 0.000    |        # [BSS] [cc] Electric Field
# | %
# | % BSEBands
# |   2 |  7 |                     # [BSK] Bands range
# | %
# | BSHayTrs=  0.02000             # [BSS] Relative [o/o] Haydock treshold. Strict(>0)/Average(<0)
# | XfnRTdb= "f @ 0.1 ps < 04_elel+elph_0K/ndb.RT_carriers" # [EXTRT Xd] Database
# | % BndsRnXs
# |   1 |  8 |                     # [Xs] Polarization function bands
# | %
# | NGsBlkXs=  59          RL      # [Xs] Response block size
# | GrFnTpXs= "R"                  # [Xs] Green`s function (T)ordered,(R)etarded,(r)senant,(a)ntiresonant [T, R, r, Ta, Ra]
# | % DmRngeXs
# |   0.10000 |  0.10000 | eV      # [Xs] Damping range
# | %
# | % LongDrXs
# | 0.1000E-4 | 0.000    | 0.000    |        # [Xs] [cc] Electric Field
# | %
