#                                                           
# :::   :::   :::     ::::    ::::  :::::::::   ::::::::    
# :+:   :+: :+: :+:   +:+:+: :+:+:+ :+:    :+: :+:    :+:   
#  +:+ +:+ +:+   +:+  +:+ +:+:+ +:+ +:+    +:+ +:+    +:+   
#   +#++: +#++:++#++: +#+  +:+  +#+ +#++:++#+  +#+    +:+   
#    +#+  +#+     +#+ +#+       +#+ +#+    +#+ +#+    +#+   
#    #+#  #+#     #+# #+#       #+# #+#    #+# #+#    #+#   
#    ###  ###     ### ###       ### #########   ########    
#                                                           
#                                                           
#        Version 4.3.0 Revision 15652 Hash 9dc5f79          
#                  MPI+SLK+OpenMP Build                     
#                http://www.yambo-code.org                  
#
# Absorption @ Q(1) [q->0 direction] : 1.0000000  0.0000000  0.0000000
#
#
# - Energies      are Perdew, Burke & Ernzerhof(X)+Perdew, Burke & Ernzerhof(C)
# - Wavefunctions are Perdew, Burke & Ernzerhof(X)+Perdew, Burke & Ernzerhof(C)
#
# - The Green`s function is Retarded -
# - Using the Length Gauge -
# - [r,Vnl] *is* included -
#
#    E/ev[1]       EPS-Im[2]     EPS-Re[3]     EPSo-Im[4]    EPSo-Re[5]
#
   0.20000        39.600        265.89        40.450        268.55   
   0.20160        40.116        266.37        40.977        269.04   
   0.20321        40.641        266.86        41.512        269.54   
   0.20481        41.168        267.36        42.052        270.04   
   0.20641        41.705        267.85        42.599        270.55   
   0.20802        42.246        268.35        43.153        271.06   
   0.20962        42.790        268.84        43.714        271.58   
   0.21122        43.345        269.36        44.282        272.10   
   0.21283        43.916        269.89        44.857        272.63   
   0.21443        44.485        270.41        45.440        273.16   
   0.21603        45.060        270.93        46.029        273.70   
   0.21764        45.645        271.48        46.627        274.24   
   0.21924        46.231        271.98        47.232        274.79   
   0.22084        46.832        272.53        47.845        275.34   
   0.22244        47.441        273.08        48.466        275.89   
   0.22405        48.062        273.64        49.095        276.46   
   0.22565        48.677        274.17        49.733        277.02   
   0.22725        49.311        274.74        50.379        277.59   
   0.22886        49.950        275.31        51.033        278.17   
   0.23046        50.603        275.88        51.697        278.75   
   0.23206        51.259        276.43        52.369        279.34   
   0.23367        51.923        277.02        53.051        279.93   
   0.23527        52.600        277.60        53.742        280.53   
   0.23687        53.282        278.18        54.442        281.13   
   0.23848        53.980        278.79        55.153        281.73   
   0.24008        54.684        279.37        55.873        282.35   
   0.24168        55.397        279.98        56.603        282.96   
   0.24329        56.116        280.56        57.344        283.58   
   0.24489        56.857        281.19        58.095        284.21   
   0.24649        57.602        281.81        58.857        284.84   
   0.24810        58.359        282.42        59.629        285.47   
   0.24970        59.122        283.04        60.413        286.11   
   0.25130        59.895        283.67        61.208        286.75   
   0.25291        60.690        284.31        62.014        287.40   
   0.25451        61.493        284.94        62.833        288.05   
   0.25611        62.299        285.59        63.663        288.71   
   0.25772        63.119        286.20        64.505        289.37   
   0.25932        63.962        286.89        65.360        290.03   
   0.26092        64.811        287.52        66.227        290.70   
   0.26253        65.677        288.21        67.108        291.37   
   0.26413        66.552        288.85        68.001        292.05   
   0.26573        67.437        289.51        68.908        292.73   
   0.26733        68.325        290.15        69.828        293.41   
   0.26894        69.243        290.83        70.762        294.10   
   0.27054        70.173        291.52        71.710        294.79   
   0.27214        71.116        292.18        72.673        295.48   
   0.27375        72.075        292.86        73.650        296.18   
   0.27535        73.043        293.54        74.642        296.88   
   0.27695        74.020        294.22        75.649        297.58   
   0.27856        75.028        294.92        76.671        298.28   
   0.28016        76.031        295.59        77.709        298.99   
   0.28176        77.073        296.29        78.762        299.70   
   0.28337        78.106        296.96        79.832        300.41   
   0.28497        79.164        297.66        80.918        301.12   
   0.28657        80.249        298.36        82.020        301.84   
   0.28818        81.349        299.07        83.140        302.55   
   0.28978        82.458        299.76        84.276        303.27   
   0.29138        83.588        300.44        85.430        303.98   
   0.29299        84.727        301.13        86.602        304.70   
   0.29459        85.893        301.84        87.791        305.42   
   0.29619        87.063        302.51        88.998        306.14   
   0.29780        88.269        303.23        90.224        306.85   
   0.29940        89.483        303.93        91.469        307.57   
   0.30100        90.726        304.62        92.732        308.29   
   0.30261        91.972        305.30        94.014        309.00   
   0.30421        93.241        305.98        95.315        309.71   
   0.30581        94.540        306.67        96.636        310.43   
   0.30741        95.839        307.34        97.977        311.13   
   0.30902        97.155        308.01        99.337        311.84   
   0.31062        98.513        308.71        100.72        312.54   
   0.31222        99.881        309.36        102.12        313.24   
   0.31383        101.27        310.04        103.54        313.93   
      0.31543     102.68771     310.72852     104.98089     314.62466
      0.31703     104.09553     311.34714     106.44316     315.30981
      0.31864     105.55659     312.01059     107.92625     315.98932
      0.32024     107.02060     312.68509     109.43021     316.66342
      0.32184     108.52943     313.32990     110.95517     317.33072
      0.32345     110.03446     313.96579     112.50127     317.99142
      0.32505     111.54633     314.54980     114.06845     318.64471
      0.32665     113.09919     315.18179     115.65681     319.28995
      0.32826     114.66022     315.77701     117.26631     319.92706
      0.32986     116.26178     316.38663     118.89719     320.55518
      0.33146     117.85539     316.95404     120.54903     321.17374
      0.33307     119.49749     317.53769     122.22206     321.78232
      0.33467     121.14530     318.11166     123.91621     322.38052
      0.33627     122.81351     318.66238     125.63121     322.96750
      0.33788     124.48995     319.20023     127.36710     323.54300
      0.33948     126.21864     319.73193     129.12372     324.10635
      0.34108     127.94492     320.24060     130.90077     324.65714
      0.34269     129.67828     320.72629     132.69818     325.19446
      0.34429     131.43239     321.21515     134.51578     325.71826
      0.34589     133.20650     321.67752     136.35307     326.22775
      0.34749     135.04057     322.17551     138.20999     326.72253
      0.34910     136.85234     322.57462     140.08621     327.20215
      0.35070     138.68114     323.02191     141.98134     327.66617
      0.35230     140.54118     323.42859     143.89497     328.11386
      0.35391     142.42136     323.82706     145.82683     328.54504
      0.35551     144.28607     324.18942     147.77649     328.95923
      0.35711     146.18501     324.53809     149.74338     329.35580
      0.35872     148.12010     324.88187     151.72725     329.73486
      0.36032     150.05132     325.19702     153.72748     330.09579
      0.36192     151.97734     325.48410     155.74344     330.43826
      0.36353     153.95386     325.78400     157.77487     330.76199
      0.36513     155.93576     326.06680     159.82109     331.06659
      0.36673     157.89983     326.27298     161.88165     331.35233
      0.36834     159.91737     326.49988     163.95569     331.61856
      0.36994     161.91718     326.72464     166.04291     331.86551
      0.37154     163.94159     326.90430     168.14261     332.09290
      0.37315     165.94148     327.03610     170.25417     332.30081
      0.37475     167.97778     327.18515     172.37706     332.48923
      0.37635     170.02477     327.33298     174.51071     332.65793
      0.37796     172.08751     327.42960     176.65439     332.80792
      0.37956     174.13211     327.50812     178.80762     332.93808
      0.38116     176.20412     327.58884     180.96980     333.04953
      0.38277     178.24480     327.61057     183.14038     333.14236
      0.38437     180.35086     327.66702     185.31873     333.21686
      0.38597     182.43727     327.67526     187.50465     333.27344
      0.38758     184.50076     327.67078     189.69724     333.31229
      0.38918     186.57025     327.62131     191.89627     333.33426
      0.39078     188.69545     327.60867     194.10144     333.33960
      0.39238     190.75841     327.53140     196.31229     333.32928
      0.39399     192.85181     327.46725     198.52849     333.30350
      0.39559     194.93755     327.37924     200.74979     333.26303
      0.39719     197.03841     327.29764     202.97612     333.20895
      0.39880     199.12672     327.18207     205.20728     333.14133
      0.40040     201.21587     327.06277     207.44330     333.06168
      0.40200     203.31180     326.92813     209.68404     332.97031
      0.40361     205.42986     326.78687     211.92972     332.86841
      0.40521     207.49297     326.61453     214.18056     332.75668
      0.40681     209.58762     326.47885     216.43689     332.63599
      0.40842     211.71017     326.34775     218.69901     332.50742
      0.41002     213.80260     326.15143     220.96724     332.37152
      0.41162     215.90581     325.97531     223.24242     332.22931
      0.41323     218.02571     325.80783     225.52501     332.08157
      0.41483     220.10458     325.62152     227.81581     331.92978
      0.41643     222.23590     325.45566     230.11583     331.77402
      0.41804     224.33865     325.26483     232.42604     331.61526
      0.41964     226.46349     325.09906     234.74673     331.45444
      0.42124     228.58951     324.90891     237.08067     331.29205
      0.42285     230.71442     324.72824     239.42780     331.12851
      0.42445     232.86674     324.56366     241.78986     330.96503
      0.42605     235.04196     324.43213     244.16829     330.80154
      0.42766     237.19925     324.24469     246.56476     330.63855
      0.42926     239.39671     324.10327     248.98076     330.47635
      0.43086     241.63472     323.94556     251.41792     330.31522
      0.43246     243.82713     323.78824     253.87823     330.15527
      0.43407     246.07422     323.67471     256.36365     329.99622
      0.43567     248.35492     323.53891     258.87552     329.83850
      0.43727     250.60452     323.39197     261.41647     329.68118
      0.43888     252.93280     323.28961     263.98822     329.52386
      0.44048     255.26921     323.14722     266.59271     329.36679
      0.44208     257.61191     323.05997     269.23239     329.20840
      0.44369     260.02670     322.97678     271.90894     329.04822
      0.44529     262.46231     322.84705     274.62473     328.88544
      0.44689     264.95813     322.78781     277.38193     328.71863
      0.44850     267.42203     322.68488     280.18271     328.54688
      0.45010     269.96783     322.61136     283.02927     328.36838
      0.45170     272.60577     322.52219     285.92340     328.18149
      0.45331     275.22064     322.40054     288.86743     327.98474
      0.45491     277.88788     322.31766     291.86349     327.77597
      0.45651     280.63776     322.23248     294.91318     327.55313
      0.45812     283.39755     322.12259     298.01904     327.31436
      0.45972     286.26166     322.03397     301.18280     327.05673
      0.46132     289.18350     321.90924     304.40598     326.77789
      0.46293     292.11295     321.80133     307.69067     326.47498
      0.46453     295.11566     321.62192     311.03815     326.14554
      0.46613     298.20642     321.47406     314.45032     325.78586
      0.46774     301.31351     321.26666     317.92847     325.39346
      0.46934     304.51288     321.08386     321.47418     324.96463
      0.47094     307.78812     320.84039     325.08832     324.49548
      0.47255     311.12585     320.59152     328.77216     323.98318
      0.47415     314.54080     320.29291     332.52667     323.42322
      0.47575     317.99731     319.95001     336.35287     322.81226
      0.47735     321.54434     319.56931     340.25076     322.14572
      0.47896     325.18445     319.19266     344.22119     321.41977
      0.48056     328.88034     318.71475     348.26459     320.62973
      0.48216     332.62073     318.20355     352.38080     319.77151
      0.48377     336.52011     317.63690     356.56952     318.84039
      0.48537     340.38885     317.02191     360.83093     317.83151
      0.48697     344.37872     316.32529     365.16415     316.74033
      0.48858     348.45291     315.55945     369.56839     315.56180
      0.49018     352.61456     314.74240     374.04266     314.29074
      0.49178     356.81931     313.83066     378.58585     312.92249
      0.49339     361.12143     312.82867     383.19604     311.45203
      0.49499     365.48029     311.73743     387.87173     309.87338
      0.49659     369.93854     310.56091     392.61069     308.18188
      0.49820     374.42014     309.34134     397.41037     306.37213
      0.49980     379.06409     307.90915     402.26804     304.43896
      0.50140     383.64001     306.48633     407.18100     302.37695
      0.50301     388.37482     304.90454     412.14545     300.18063
      0.50461     393.12115     303.17383     417.15784     297.84488
      0.50621     397.92789     301.31903     422.21411     295.36417
      0.50782     402.79788     299.40451     427.30981     292.73355
      0.50942     407.82059     297.25427     432.44000     289.94818
      0.51102     412.76553     295.05032     437.59961     287.00272
      0.51263     417.86020     292.65808     442.78311     283.89221
      0.51423     422.89343     290.13519     447.98422     280.61230
      0.51583     427.99789     287.44598     453.19705     277.15833
      0.51743     433.16931     284.62292     458.41473     273.52603
      0.51904     438.27887     281.61591     463.63004     269.71143
      0.52064     443.53839     278.43176     468.83542     265.71048
      0.52224     448.71844     275.12042     474.02332     261.52023
      0.52385     453.88821     271.61295     479.18512     257.13730
      0.52545     459.10629     267.85251     484.31262     252.55885
      0.52705     464.31546     263.95071     489.39670     247.78287
      0.52866     469.52612     259.89597     494.42795     242.80750
      0.53026     474.70953     255.58508     499.39685     237.63091
      0.53186     479.84482     251.12456     504.29376     232.25294
      0.53347     484.92606     246.45346     509.10892     226.67232
      0.53507     489.99002     241.57277     513.83081     220.89000
      0.53667     494.93707     236.53711     518.45050     214.90642
      0.53828     499.88358     231.30052     522.95612     208.72325
      0.53988     504.70328     225.80679     527.33783     202.34274
      0.54148     509.45932     220.11465     531.58429     195.76730
      0.54309     514.12555     214.17929     535.68518     189.00081
      0.54469     518.62958     208.12386     539.62909     182.04755
      0.54629     523.01624     201.89954     543.40601     174.91194
      0.54790     527.35516     195.37688     547.00500     167.59988
   0.54950        531.50        188.74        550.42        160.12   
   0.55110        535.49        181.86        553.63        152.47   
   0.55271        539.30        174.88        556.63        144.67   
   0.55431        542.95        167.66        559.42        136.73   
   0.55591        546.41        160.28        561.98        128.64   
   0.55752        549.71        152.68        564.31        120.43   
   0.55912        552.72        145.08        566.40        112.10   
   0.56072        555.60        137.20        568.24        103.66   
   0.56232        558.24        129.20        569.82        95.132   
   0.56393        560.65        121.00        571.14        86.519   
   0.56553        562.79        112.84        572.19        77.835   
   0.56713        564.71        104.42        572.97        69.093   
   0.56874        566.37        95.985        573.48        60.306   
   0.57034        567.79        87.419        573.71        51.488   
   0.57194        568.91        78.867        573.66        42.652   
      0.57355     569.79132      70.17146     573.32996      33.81248
      0.57515     570.39056      61.44076     572.72174      24.98189
      0.57675     570.71490      52.66885     571.83496      16.17453
      0.57836     570.74628      43.96542     570.67072       7.40334
      0.57996     570.52435      35.07360     569.23199      -1.31810
      0.58156     570.00104      26.37422     567.52197      -9.97642
      0.58317     569.21588      17.51351     565.54492     -18.55950
      0.58477     568.15906       8.81434     563.30646     -27.05464
   0.58637        566.81       0.57448E-1     560.81       -35.450   
      0.58798     565.20404      -8.53233     558.06744     -43.73342
      0.58958     563.31061     -17.03788     555.08032     -51.89493
      0.59118     561.17303     -25.50525     551.85870     -59.92356
      0.59279     558.77124     -33.95808     548.41022     -67.80993
      0.59439     556.10455     -42.30727     544.74384     -75.54464
      0.59599     553.23395     -50.36345     540.86865     -83.11935
      0.59760     550.09161     -58.44091     536.79462     -90.52592
      0.59920     546.72833     -66.27521     532.53162     -97.75787
      0.60080     543.16351     -74.01007     528.08911    -104.80845
      0.60240     539.37756     -81.59238     523.47778    -111.67185
      0.60401     535.35504     -89.00471     518.70807    -118.34350
      0.60561     531.21454     -96.23997     513.79083    -124.81892
      0.60721     526.83099    -103.31799     508.73642    -131.09448
      0.60882     522.31476    -110.19675     503.55573    -137.16760
      0.61042     517.58856    -116.94477     498.25836    -143.03589
      0.61202     512.74658    -123.44665     492.85605    -148.69771
      0.61363     507.75119    -129.67558     487.35794    -154.15221
      0.61523     502.65247    -135.79918     481.77475    -159.39873
      0.61683     497.42343    -141.68269     476.11606    -164.43771
      0.61844     492.06439    -147.42905     470.39197    -169.26952
      0.62004     486.64734    -152.88947     464.61163    -173.89571
      0.62164     481.14716    -158.07878     458.78366    -178.31778
      0.62325     475.53720    -163.19710     452.91699    -182.53755
      0.62485     469.82083    -168.12312     447.02014    -186.55782
      0.62645     464.09119    -172.77161     441.10117    -190.38110
      0.62806     458.29465    -177.28534     435.16772    -194.01073
      0.62966     452.51920    -181.46703     429.22757    -197.44975
      0.63126     446.62460    -185.52971     423.28693    -200.70216
      0.63287     440.74164    -189.43715     417.35303    -203.77174
      0.63447     434.85818    -193.01506     411.43195    -206.66255
      0.63607     428.93042    -196.53036     405.52933    -209.37880
      0.63768     423.05612    -199.80879     399.65073    -211.92511
      0.63928     417.13077    -202.96733     393.80167    -214.30569
      0.64088     411.23199    -205.84763     387.98660    -216.52530
      0.64248     405.35364    -208.60559     382.21005    -218.58875
      0.64409     399.48181    -211.21965     376.47610    -220.50053
      0.64569     393.67099    -213.59314     370.78879    -222.26546
      0.64729     387.89044    -215.80846     365.15131    -223.88832
      0.64890     382.12549    -217.92798     359.56693    -225.37375
      0.65050     376.44052    -219.87846     354.03870    -226.72676
      0.65210     370.70877    -221.70854     348.56894    -227.95186
      0.65371     365.09256    -223.33614     343.16025    -229.05385
      0.65531     359.54529    -224.86685     337.81494    -230.03702
      0.65691     354.03076    -226.22656     332.53436    -230.90651
      0.65852     348.58618    -227.49165     327.32037    -231.66605
      0.66012     343.14951    -228.62221     322.17462    -232.32083
      0.66172     337.81912    -229.63867     317.09802    -232.87431
      0.66333     332.56439    -230.52351     312.09174    -233.33147
      0.66493     327.35657    -231.31071     307.15646    -233.69557
      0.66653     322.17636    -231.99892     302.29309    -233.97137
      0.66814     317.14023    -232.58098     297.50189    -234.16226
      0.66974     312.13025    -233.05934     292.78363    -234.27243
      0.67134     307.18887    -233.44293     288.13846    -234.30528
      0.67295     302.35690    -233.75085     283.56601    -234.26459
      0.67455     297.57007    -233.94940     279.06683    -234.15375
      0.67615     292.82156    -234.07478     274.64078    -233.97612
      0.67776     288.21188    -234.11823     270.28735    -233.73474
      0.67936     283.62790    -234.11377     266.00635    -233.43315
      0.68096     279.14297    -234.01283     261.79758    -233.07401
      0.68257     274.71475    -233.85396     257.66040    -232.66031
      0.68417     270.35669    -233.62308     253.59431    -232.19505
      0.68577     266.07172    -233.34456     249.59895    -231.68091
      0.68737     261.84348    -233.01419     245.67317    -231.12039
      0.68898     257.72592    -232.59489     241.81664    -230.51624
      0.69058     253.66646    -232.15309     238.02879    -229.87036
      0.69218     249.67517    -231.65201     234.30858    -229.18547
      0.69379     245.76474    -231.08054     230.65523    -228.46376
      0.69539     241.88474    -230.51045     227.06773    -227.70738
      0.69699     238.08514    -229.88120     223.54553    -226.91833
      0.69860     234.37825    -229.20995     220.08745    -226.09842
      0.70020     230.71179    -228.50203     216.69263    -225.24977
      0.70180     227.13577    -227.73750     213.36038    -224.37413
      0.70341     223.61182    -226.96393     210.08936    -223.47318
      0.70501     220.15137    -226.16185     206.87888    -222.54842
      0.70661     216.75342    -225.33586     203.72795    -221.60147
      0.70822     213.40714    -224.45319     200.63541    -220.63403
      0.70982     210.14423    -223.56157     197.60039    -219.64734
      0.71142     206.94043    -222.65530     194.62204    -218.64282
      0.71303     203.78618    -221.70654     191.69923    -217.62216
      0.71463     200.68948    -220.74744     188.83099    -216.58598
      0.71623     197.66203    -219.75702     186.01628    -215.53577
      0.71784     194.67731    -218.77705     183.25447    -214.47267
      0.71944     191.76030    -217.76166     180.54413    -213.39764
      0.72104     188.89751    -216.73172     177.88446    -212.31192
      0.72265     186.06900    -215.68465     175.27461    -211.21635
      0.72425     183.29387    -214.62289     172.71353    -210.11189
      0.72585     180.59901    -213.55130     170.20033    -208.99942
      0.72745     177.93330    -212.48318     167.73413    -207.87993
      0.72906     175.31087    -211.39084     165.31398    -206.75389
      0.73066     172.75580    -210.28989     162.93892    -205.62225
      0.73226     170.24808    -209.18326     160.60811    -204.48593
      0.73387     167.77652    -208.07910     158.32069    -203.34535
      0.73547     165.34813    -206.94370     156.07568    -202.20123
      0.73707     162.97054    -205.81824     153.87242    -201.05424
      0.73868     160.63905    -204.68155     151.70999    -199.90485
      0.74028     158.34973    -203.54720     149.58762    -198.75383
      0.74188     156.11031    -202.41321     147.50418    -197.60143
      0.74349     153.91270    -201.27579     145.45937    -196.44846
      0.74509     151.74330    -200.12549     143.45209    -195.29521
      0.74669     149.61667    -198.96651     141.48157    -194.14218
      0.74830     147.53860    -197.82860     139.54720    -192.98978
      0.74990     145.48663    -196.68144     137.64816    -191.83846
      0.75150     143.48047    -195.53331     135.78365    -190.68837
      0.75311     141.50435    -194.38530     133.95308    -189.53995
      0.75471     139.57483    -193.22972     132.15573    -188.39397
      0.75631     137.67961    -192.07993     130.39095    -187.25012
      0.75792     135.81061    -190.93718     128.65791    -186.10905
      0.75952     133.97888    -189.78845     126.95605    -184.97102
      0.76112     132.19110    -188.65134     125.28482    -183.83629
      0.76273     130.42099    -187.50354     123.64342    -182.70500
      0.76433     128.68707    -186.36688     122.03145    -181.57750
      0.76593     126.97524    -185.22514     120.44805    -180.45393
      0.76754     125.30642    -184.09016     118.89267    -179.33447
      0.76914     123.66898    -182.97243     117.36494    -178.21948
      0.77074     122.06092    -181.84393     115.86430    -177.10905
      0.77234     120.47323    -180.72652     114.38983    -176.00320
      0.77395     118.91898    -179.60251     112.94118    -174.90227
      0.77555     117.39077    -178.48849     111.51796    -173.80629
      0.77715     115.88439    -177.37927     110.11948    -172.71556
      0.77876     114.42437    -176.28394     108.74522    -171.62996
      0.78036     112.96850    -175.17906     107.39490    -170.55005
      0.78196     111.54359    -174.08176     106.06775    -169.47546
      0.78357     110.13658    -172.99467     104.76343    -168.40648
      0.78517     108.77161    -171.91222     103.48151    -167.34332
      0.78677     107.41666    -170.83142     102.22144    -166.28575
      0.78838     106.08554    -169.75732     100.98293    -165.23413
      0.78998     104.78337    -168.68916      99.76540    -164.18834
      0.79158     103.50817    -167.62967      98.56847    -163.14864
      0.79319     102.24580    -166.57509      97.39167    -162.11501
      0.79479     101.00692    -165.52431      96.23473    -161.08745
      0.79639      99.78397    -164.47209      95.09715    -160.06606
      0.79800      98.59928    -163.44145      93.97855    -159.05074
      0.79960      97.41875    -162.41144      92.87856    -158.04173
      0.80120      96.26404    -161.38716      91.79681    -157.03891
      0.80281      95.12199    -160.35699      90.73291    -156.04233
      0.80441      94.00341    -159.34435      89.68658    -155.05222
      0.80601      92.90382    -158.33902      88.65737    -154.06847
      0.80762      91.82215    -157.33420      87.64505    -153.09091
      0.80922      90.76001    -156.33478      86.64922    -152.11978
      0.81082      89.71589    -155.35042      85.66957    -151.15497
      0.81242      88.68237    -154.36267      84.70575    -150.19641
      0.81403      87.67295    -153.38583      83.75751    -149.24437
      0.81563      86.68715    -152.42661      82.82454    -148.29857
      0.81723      85.70264    -151.45740      81.90649    -147.35924
      0.81884      84.73466    -150.49571      81.00313    -146.42624
      0.82044      83.79457    -149.54924      80.11420    -145.49954
      0.82204      82.85662    -148.59880      79.23932    -144.57915
      0.82365      81.93923    -147.66083      78.37826    -143.66513
      0.82525      81.03497    -146.72708      77.53078    -142.75731
      0.82685      80.14857    -145.80231      76.69666    -141.85587
      0.82846      79.28268    -144.88751      75.87554    -140.96080
      0.83006      78.41697    -143.97191      75.06725    -140.07170
      0.83166      77.56969    -143.06297      74.27161    -139.18892
      0.83327      76.73755    -142.16504      73.48824    -138.31236
      0.83487      75.91697    -141.26613      72.71699    -137.44197
      0.83647      75.10784    -140.37738      71.95765    -136.57765
      0.83808      74.31686    -139.49905      71.20992    -135.71956
      0.83968      73.52689    -138.61365      70.47366    -134.86752
      0.84128      72.75934    -137.74731      69.74859    -134.02139
      0.84289      72.00072    -136.88283      69.03458    -133.18146
      0.84449      71.25839    -136.02933      68.33138    -132.34740
      0.84609      70.52079    -135.17357      67.63887    -131.51930
      0.84770      69.79752    -134.33089      66.95674    -130.69717
      0.84930      69.08682    -133.49356      66.28483    -129.88084
      0.85090      68.38174    -132.65730      65.62300    -129.07031
      0.85250      67.69049    -131.82887      64.97108    -128.26567
      0.85411      67.01160    -131.00975      64.32884    -127.46680
      0.85571      66.33491    -130.18745      63.69611    -126.67348
      0.85731      65.67301    -129.37508      63.07275    -125.88612
      0.85892      65.02314    -128.57152      62.45861    -125.10430
      0.86052      64.38514    -127.77645      61.85345    -124.32811
      0.86212      63.75251    -126.98204      61.25723    -123.55736
      0.86373      63.13049    -126.19729      60.66970    -122.79234
      0.86533      62.51647    -125.41354      60.09068    -122.03270
      0.86693      61.90961    -124.63193      59.52018    -121.27850
      0.86854      61.31631    -123.86665      58.95792    -120.52970
      0.87014      60.72979    -123.09970      58.40385    -119.78629
      0.87174      60.15274    -122.34237      57.85778    -119.04816
      0.87335      59.58725    -121.59150      57.31949    -118.31539
      0.87495      59.02288    -120.83900      56.78896    -117.58786
      0.87655      58.46984    -120.09651      56.26602    -116.86549
      0.87816      57.92347    -119.35576      55.75057    -116.14816
      0.87976      57.38623    -118.62038      55.24245    -115.43623
      0.88136      56.85724    -117.89450      54.74160    -114.72916
      0.88297      56.33832    -117.17540      54.24785    -114.02722
      0.88457      55.82511    -116.45866      53.76110    -113.33028
      0.88617      55.31788    -115.74397      53.28130    -112.63824
      0.88778      54.81910    -115.04057      52.80819    -111.95109
      0.88938      54.32531    -114.33406      52.34181    -111.26881
      0.89098      53.83995    -113.63841      51.88198    -110.59140
      0.89259      53.36227    -112.94525      51.42861    -109.91870
      0.89419      52.88885    -112.25572      50.98161    -109.25085
      0.89579      52.42387    -111.57335      50.54089    -108.58767
      0.89739      51.96748    -110.90039      50.10632    -107.92918
      0.89900      51.51581    -110.22450      49.67783    -107.27536
      0.90060      51.07191    -109.55859      49.25537    -106.62608
      0.90220      50.62878    -108.89188      48.83876    -105.98135
      0.90381      50.19973    -108.23517      48.42797    -105.34116
      0.90541      49.77082    -107.57835      48.02292    -104.70541
      0.90701      49.34979    -106.93047      47.62351    -104.07415
      0.90862      48.93468    -106.28589      47.22964    -103.44730
      0.91022      48.52595    -105.64397      46.84129    -102.82482
      0.91182      48.12318    -105.01002      46.45828    -102.20669
      0.91343      47.72654    -104.37874      46.08064    -101.59283
      0.91503      47.33309    -103.75109      45.70824    -100.98321
      0.91663      46.94921    -103.12905      45.34103    -100.37788
      0.91824      46.56832    -102.51064      44.97891     -99.77677
      0.91984      46.19012    -101.89390      44.62183     -99.17976
      0.92144      45.82085    -101.28526      44.26973     -98.58691
      0.92305      45.45610    -100.68048      43.92253     -97.99824
      0.92465      45.09761    -100.07967      43.58015     -97.41351
     0.926252     44.739838    -99.480385     43.242550    -96.832924
     0.927856     44.389778    -98.887573     42.909679    -96.256340
     0.929459     44.045479    -98.298943     42.581425    -95.683685
     0.931062     43.707264    -97.716026     42.257774    -95.115044
     0.932665     43.371361    -97.134727     41.938644    -94.550331
     0.934269     43.040081    -96.556541     41.624004    -93.989487
     0.935872     42.714874    -95.985672     41.313763    -93.432495
     0.937475     42.393803    -95.416237     41.007893    -92.879410
     0.939078     42.076496    -94.850555     40.706280    -92.330147
     0.940681     41.765690    -94.291183     40.408985    -91.784744
     0.942285     41.457722    -93.734459     40.115852    -91.243065
     0.943888     41.153988    -93.180664     39.826836    -90.705063
     0.945491     40.855202    -92.632584     39.541931    -90.170845
     0.947094     40.562077    -92.087448     39.261093    -89.640343
     0.948697     40.270985    -91.545570     38.984215    -89.113533
     0.950301     39.985428    -91.008339     38.711262    -88.590446
     0.951904     39.702332    -90.473770     38.442268    -88.070953
     0.953507     39.423897    -89.942879     38.177082    -87.555016
     0.955110     39.149681    -89.415985     37.915730    -87.042793
     0.956713     38.880146    -88.894157     37.658131    -86.534157
     0.958317     38.614979    -88.375900     37.404221    -86.029076
     0.959920     38.352818    -87.860970     37.153984    -85.527557
     0.961523     38.093639    -87.347733     36.907413    -85.029640
     0.963126     37.839584    -86.840187     36.664364    -84.535202
     0.964729     37.588398    -86.335869     36.424900    -84.044304
     0.966333     37.342484    -85.836731     36.188866    -83.556885
     0.967936     37.098213    -85.338898     35.956295    -83.072899
     0.969539     36.858765    -84.844986     35.727173    -82.592468
     0.971142     36.622784    -84.356285     35.501366    -82.115509
     0.972745     36.388611    -83.868607     35.278893    -81.641960
     0.974349     36.160007    -83.386597     35.059689    -81.171951
     0.975952     35.934879    -82.907982     34.843716    -80.705368
     0.977555     35.711617    -82.432983     34.630939    -80.242233
     0.979158     35.491577    -81.960098     34.421288    -79.782471
     0.980762     35.277508    -81.493225     34.214783    -79.326080
     0.982365     35.064320    -81.027992     34.011299    -78.873199
     0.983968     34.855457    -80.567497     33.810852    -78.423737
     0.985571     34.648525    -80.108795     33.613342    -77.977570
     0.987174     34.444649    -79.653320     33.418789    -77.534843
     0.988778     34.244511    -79.202850     33.227089    -77.095573
     0.990381     34.046249    -78.755341     33.038223    -76.659584
     0.991984     33.853069    -78.312424     32.852150    -76.227036
     0.993587     33.661457    -77.872604     32.668827    -75.797852
     0.995190     33.472645    -77.434540     32.488144    -75.372017
     0.996794     33.287426    -77.002235     32.310158    -74.949554
     0.998397     33.104080    -76.572495     32.134720    -74.530487
     1.000000     32.922543    -76.145332     31.961828    -74.114731
# 
# 07/28/2018 at 15:52 YAMBO_RT @ narro [start]
# 07/28/2018 at 15:52                  [end]
#
# .-Input file : yambo.in
# | optics                         # [R OPT] Optics
# | chi                            # [R CHI] Dyson equation for Chi.
# | ElecTemp=  0.02586     eV      # Electronic Temperature
# | BoseTemp=  0.02586     eV      # Bosonic Temperature
# | FFTGvecs=  603         RL      # [FFT] Plane-waves
# | X_Threads= 1                   # [OPENMP/X] Number of threads for response functions
# | DIP_Threads= 1                 # [OPENMP/X] Number of threads for dipoles
# | Chimod= "Hartree"              # [X] IP/Hartree/ALDA/LRC/PF/BSfxc
# | NGsBlkXd= 13           RL      # [Xd] Response block size
# | % QpntsRXd
# |  1 | 1 |                       # [Xd] Transferred momenta
# | %
# | % BndsRnXd
# |   1 | 18 |                     # [Xd] Polarization function bands
# | %
# | GrFnTpXd= "R"                  # [Xd] Green`s function (T)ordered,(R)etarded,(r)senant,(a)ntiresonant [T, R, r, Ta, Ra]
# | % EnRngeXd
# |  0.200000 | 1.000000 | eV      # [Xd] Energy range
# | %
# | % DmRngeXd
# |   0.10000 |  0.10000 | eV      # [Xd] Damping range
# | %
# | ETStpsXd=  500                 # [Xd] Total Energy steps
# | % LongDrXd
# | 0.1000E-4 | 0.000    | 0.000    |        # [Xd] [cc] Electric Field
# | %
