#                                                                     
#  ____  ____     _       ____    ____  ______      ___               
# |_  _||_  _|   / \     |_   \  /   _||_   _ \   ."   `.             
#   \ \  / /    / _ \      |   \/   |    | |_) | /  .-.  \            
#    \ \/ /    / ___ \     | |\  /| |    |  __". | |   | |            
#    _|  |_  _/ /   \ \_  _| |_\/_| |_  _| |__) |\  `-"  /            
#   |______||____| |____||_____||_____||_______/  `.___."             
#                                                                     
#                                                                     
#                                                                     
# Version 5.2.0 Revision 22885 Hash (prev commit) 41fc9d87d4          
#                 Branch is phys-dichroism                            
#          MPI+OpenMP+SLK+SLEPC+HDF5_MPI_IO Build                     
#                http://www.yambo-code.org                            
#
# Absorption @ Q(1):   0.00000000     0.999999975E-5   0.00000000    [q->0 direction]
#
# [GEN] GF Energies                               : Perdew, Burke & Ernzerhof(X)+Perdew, Burke & Ernzerhof(C)
# [GEN] Green`s Function                          : Retarded
#
# [GEN] Gauge                                     : Length
# [GEN] [r,Vnl] included                          : yes
#
# DIP band range                                  :   5  10
# DIP band range limits                           :  10   5
# DIP e/h energy range                            :  -1.00000000     -1.00000000    [eV]
# RL vectors in the sum                           :   603
# [r,Vnl] included                                : yes
# Bands ordered                                   : no
# Direct v evaluation                             : no
# Approach used                                   : G-space v
# Dipoles computed                                : R V P Spin
# Wavefunctions                                   : Perdew, Burke & Ernzerhof(X)+Perdew, Burke & Ernzerhof(C)
#
#
# [K] Identifier                                  :   4572
# [K] Dimension                                   :   634
# [K] Bands                                       :   5  10
# [K] Exchange res                                : yes
# [K] Correlation res                             : no
# [K] Kernel`s coupling                           : no
# [K] Exchange cpl                                : no
# [K] Correlation cpl                             : no
# [K] W interaction is bare                       : no
# [K] ALDA kernel in R-space                      : yes
# [K] RL vectors exchange                         :  1157
# [K] E/h energy range                            :  -1.00000000     -1.00000000    [eV]
# [K] Coupling range                              :   100.000000      100.000000    [o/o]
# [X] Response Kind                               : BAR
#
# Diamagnetic term                                
# Ao                                              :  -7.12372255    [nel]
# A                                               :   0.00000000    [nel]
#
#    E[1] [eV]          Im(eps)            Re(eps)            Im(eps_o)          Re(eps_o)
#
       -2.000000          -21.41999          -10.76904          -21.40700          -10.38016
       -1.996000          -20.96685          -10.42744          -20.94618          -10.04648
       -1.992000          -20.49856          -10.12954          -20.47142          -9.756787
       -1.988000          -20.01962          -9.875157          -19.98708          -9.510731
       -1.984000          -19.53432          -9.663610          -19.49750          -9.307482
       -1.980000          -19.04663          -9.493723          -19.00645          -9.145796
       -1.976000          -18.56012          -9.363958          -18.51757          -9.023961
       -1.972000          -18.07804          -9.272460          -18.03388          -8.940109
       -1.968000          -17.60320          -9.217180          -17.55815          -8.892112
       -1.964000          -17.13800          -9.195859          -17.09269          -8.877648
       -1.960000          -16.68447          -9.206207          -16.63942          -8.894445
       -1.956000          -16.24426          -9.245836          -16.19993          -8.940060
       -1.952000          -15.81868          -9.312465          -15.77551          -9.012216
       -1.948000          -15.40880          -9.403780          -15.36704          -9.108633
       -1.944000          -15.01534          -9.517612          -14.97523          -9.227160
       -1.940000          -14.63880          -9.651826          -14.60058          -9.365644
       -1.936000          -14.27952          -9.804469          -14.24336          -9.522182
       -1.932000          -13.93762          -9.973717          -13.90357          -9.694905
       -1.928000          -13.61309          -10.15782          -13.58130          -9.882215
       -1.924000          -13.30583          -10.35523          -13.27633          -10.08249
       -1.920000          -13.01561          -10.56450          -12.98844          -10.29439
       -1.916000          -12.74212          -10.78433          -12.71731          -10.51649
       -1.912000          -12.48508          -11.01350          -12.46262          -10.74776
       -1.908000          -12.24404          -11.25096          -12.22396          -10.98704
       -1.904000          -12.01862          -11.49570          -12.00091          -11.23347
       -1.900000          -11.80840          -11.74692          -11.79304          -11.48618
       -1.896000          -11.61293          -12.00381          -11.59991          -11.74437
       -1.892000          -11.43182          -12.26565          -11.42112          -12.00737
       -1.888000          -11.26462          -12.53186          -11.25623          -12.27461
       -1.884000          -11.11092          -12.80188          -11.10482          -12.54557
       -1.880000          -10.97035          -13.07523          -10.96653          -12.81970
       -1.876000          -10.84251          -13.35146          -10.84100          -13.09667
       -1.872000          -10.72708          -13.63025          -10.72786          -13.37607
       -1.868000          -10.62372          -13.91119          -10.62679          -13.65749
       -1.864000          -10.53214          -14.19404          -10.53754          -13.94080
       -1.860000          -10.45206          -14.47847          -10.45982          -14.22562
       -1.856000          -10.38326          -14.76429          -10.39338          -14.51172
       -1.852000          -10.32550          -15.05129          -10.33801          -14.79892
       -1.848000          -10.27859          -15.33922          -10.29354          -15.08704
       -1.844000          -10.24239          -15.62797          -10.25983          -15.37586
       -1.840000          -10.21677          -15.91734          -10.23675          -15.66530
       -1.836000          -10.20162          -16.20715          -10.22421          -15.95507
       -1.832000          -10.19688          -16.49730          -10.22215          -16.24512
       -1.828000          -10.20249          -16.78761          -10.23053          -16.53526
       -1.824000          -10.21845          -17.07789          -10.24935          -16.82527
       -1.820000          -10.24477          -17.36805          -10.27863          -17.11509
       -1.816000          -10.28148          -17.65790          -10.31842          -17.40452
       -1.812000          -10.32867          -17.94722          -10.36878          -17.69336
       -1.808000          -10.38643          -18.23588          -10.42986          -17.98137
       -1.804000          -10.45487          -18.52363          -10.50175          -18.26838
       -1.800000          -10.53415          -18.81024          -10.58463          -18.55413
       -1.796000          -10.62443          -19.09543          -10.67863          -18.83832
       -1.792000          -10.72591          -19.37894          -10.78401          -19.12063
       -1.788000          -10.83879          -19.66043          -10.90098          -19.40071
       -1.784000          -10.96333          -19.93949          -11.02976          -19.67818
       -1.780000          -11.09976          -20.21571          -11.17059          -19.95260
       -1.776000          -11.24836          -20.48863          -11.32379          -20.22349
       -1.772000          -11.40938          -20.75772          -11.48962          -20.49021
       -1.768000          -11.58311          -21.02233          -11.66830          -20.75215
       -1.764000          -11.76982          -21.28184          -11.86017          -21.00866
       -1.760000          -11.96978          -21.53549          -12.06543          -21.25886
       -1.756000          -12.18322          -21.78239          -12.28435          -21.50191
       -1.752000          -12.41037          -22.02165          -12.51714          -21.73684
       -1.748000          -12.65142          -22.25223          -12.76393          -21.96257
       -1.744000          -12.90643          -22.47300          -13.02479          -22.17794
       -1.740000          -13.17550          -22.68268          -13.29977          -22.38159
       -1.736000          -13.45857          -22.87993          -13.58873          -22.57207
       -1.732000          -13.75547          -23.06332          -13.89150          -22.74795
       -1.728000          -14.06590          -23.23123          -14.20767          -22.90759
       -1.724000          -14.38940          -23.38198          -14.53672          -23.04928
       -1.720000          -14.72526          -23.51379          -14.87785          -23.17107
       -1.716000          -15.07263          -23.62483          -15.23006          -23.27117
       -1.712000          -15.43032          -23.71313          -15.59205          -23.34767
       -1.708000          -15.79690          -23.77683          -15.96231          -23.39854
       -1.704000          -16.17061          -23.81403          -16.33883          -23.42203
       -1.700000          -16.54930          -23.82279          -16.71936          -23.41617
       -1.696000          -16.93049          -23.80149          -17.10122          -23.37947
       -1.692000          -17.31132          -23.74856          -17.48139          -23.31036
       -1.688000          -17.68857          -23.66282          -17.85646          -23.20777
       -1.684000          -18.05863          -23.54332          -18.22271          -23.07111
       -1.680000          -18.41759          -23.38961          -18.57607          -22.90006
       -1.676000          -18.76128          -23.20185          -18.91223          -22.69491
       -1.672000          -19.08538          -22.98071          -19.22683          -22.45674
       -1.668000          -19.38545          -22.72751          -19.51544          -22.18706
       -1.664000          -19.65713          -22.44433          -19.77368          -21.88844
       -1.660000          -19.89626          -22.13398          -19.99749          -21.56394
       -1.656000          -20.09900          -21.79999          -20.18327          -21.21731
       -1.652000          -20.26200          -21.44648          -20.32786          -20.85310
       -1.648000          -20.38251          -21.07825          -20.42881          -20.47618
       -1.644000          -20.45859          -20.70049          -20.48451          -20.09206
       -1.640000          -20.48903          -20.31870          -20.49412          -19.70633
       -1.636000          -20.47362          -19.93851          -20.45782          -19.32453
       -1.632000          -20.41294          -19.56553          -20.37658          -18.95240
       -1.628000          -20.30848          -19.20513          -20.25227          -18.59507
       -1.624000          -20.16256          -18.86231          -20.08752          -18.25744
       -1.620000          -19.97812          -18.54157          -19.88556          -17.94373
       -1.616000          -19.75868          -18.24681          -19.65016          -17.65755
       -1.612000          -19.50823          -17.98114          -19.38531          -17.40176
       -1.608000          -19.23098          -17.74708          -19.09549          -17.17849
       -1.604000          -18.93121          -17.54630          -18.78497          -16.98922
       -1.600000          -18.61328          -17.37985          -18.45806          -16.83466
       -1.596000          -18.28138          -17.24813          -18.11890          -16.71497
       -1.592000          -17.93943          -17.15099          -17.77132          -16.62976
       -1.588000          -17.59114          -17.08774          -17.41891          -16.57809
       -1.584000          -17.23982          -17.05735          -17.06482          -16.55882
       -1.580000          -16.88845          -17.05841          -16.71188          -16.57048
       -1.576000          -16.53955          -17.08936          -16.36244          -16.61136
       -1.572000          -16.19535          -17.14849          -16.01864          -16.67963
       -1.568000          -15.85767          -17.23389          -15.68212          -16.77344
       -1.564000          -15.52802          -17.34373          -15.35424          -16.89091
       -1.560000          -15.20758          -17.47612          -15.03607          -17.03016
       -1.556000          -14.89727          -17.62934          -14.72839          -17.18951
       -1.552000          -14.59780          -17.80164          -14.43191          -17.36716
       -1.548000          -14.30963          -17.99140          -14.14688          -17.56152
       -1.544000          -14.03309          -18.19702          -13.87366          -17.77116
       -1.540000          -13.76837          -18.41713          -13.61234          -17.99464
       -1.536000          -13.51550          -18.65041          -13.36288          -18.23069
       -1.532000          -13.27448          -18.89572          -13.12527          -18.47824
       -1.528000          -13.04518          -19.15186          -12.89933          -18.73611
       -1.524000          -12.82745          -19.41791          -12.68489          -19.00345
       -1.520000          -12.62112          -19.69290          -12.48173          -19.27931
       -1.516000          -12.42591          -19.97605          -12.28958          -19.56296
       -1.512000          -12.24156          -20.26661          -12.10818          -19.85359
       -1.508000          -12.06781          -20.56383          -11.93723          -20.15059
       -1.504000          -11.90436          -20.86717          -11.77645          -20.45346
       -1.500000          -11.75091          -21.17601          -11.62548          -20.76148
       -1.496000          -11.60714          -21.48989          -11.48408          -21.07437
       -1.492000          -11.47275          -21.80835          -11.35190          -21.39161
       -1.488000          -11.34743          -22.13095          -11.22864          -21.71276
       -1.484000          -11.23087          -22.45734          -11.11399          -22.03759
       -1.480000          -11.12276          -22.78722          -11.00763          -22.36565
       -1.476000          -11.02280          -23.12026          -10.90929          -22.69675
       -1.472000          -10.93070          -23.45621          -10.81868          -23.03063
       -1.468000          -10.84617          -23.79488          -10.73552          -23.36707
       -1.464000          -10.76894          -24.13603          -10.65948          -23.70597
       -1.460000          -10.69872          -24.47950          -10.59038          -24.04702
       -1.456000          -10.63527          -24.82516          -10.52789          -24.39018
       -1.452000          -10.57834          -25.17285          -10.47182          -24.73534
       -1.448000          -10.52769          -25.52254          -10.42194          -25.08227
       -1.444000          -10.48308          -25.87404          -10.37798          -25.43102
       -1.440000          -10.44431          -26.22735          -10.33975          -25.78152
       -1.436000          -10.41117          -26.58243          -10.30706          -26.13362
       -1.432000          -10.38346          -26.93914          -10.27969          -26.48739
       -1.428000          -10.36100          -27.29754          -10.25750          -26.84274
       -1.424000          -10.34362          -27.65759          -10.24027          -27.19967
       -1.420000          -10.33114          -28.01925          -10.22789          -27.55816
       -1.416000          -10.32340          -28.38251          -10.22017          -27.91826
       -1.412000          -10.32027          -28.74742          -10.21697          -28.27991
       -1.408000          -10.32160          -29.11398          -10.21815          -28.64310
       -1.404000          -10.32727          -29.48222          -10.22360          -29.00794
       -1.400000          -10.33715          -29.85215          -10.23318          -29.37452
       -1.396000          -10.35112          -30.22376          -10.24679          -29.74260
       -1.392000          -10.36907          -30.59712          -10.26432          -30.11239
       -1.388000          -10.39091          -30.97235          -10.28566          -30.48406
       -1.384000          -10.41652          -31.34937          -10.31072          -30.85746
       -1.380000          -10.44585          -31.72825          -10.33941          -31.23267
       -1.376000          -10.47877          -32.10917          -10.37166          -31.60980
       -1.372000          -10.51524          -32.49202          -10.40738          -31.98887
       -1.368000          -10.55516          -32.87701          -10.44648          -32.36995
       -1.364000          -10.59849          -33.26411          -10.48893          -32.75327
       -1.360000          -10.64515          -33.65343          -10.53468          -33.13863
       -1.356000          -10.69510          -34.04510          -10.58365          -33.52626
       -1.352000          -10.74830          -34.43914          -10.63579          -33.91626
       -1.348000          -10.80470          -34.83563          -10.69110          -34.30861
       -1.344000          -10.86428          -35.23469          -10.74949          -34.70358
       -1.340000          -10.92702          -35.63638          -10.81100          -35.10107
       -1.336000          -10.99291          -36.04085          -10.87561          -35.50127
       -1.332000          -11.06194          -36.44814          -10.94331          -35.90418
       -1.328000          -11.13409          -36.85831          -11.01407          -36.31004
       -1.324000          -11.20941          -37.27155          -11.08791          -36.71880
       -1.320000          -11.28790          -37.68784          -11.16489          -37.13055
       -1.316000          -11.36957          -38.10741          -11.24500          -37.54557
       -1.312000          -11.45447          -38.53023          -11.32825          -37.96381
       -1.308000          -11.54261          -38.95643          -11.41471          -38.38529
       -1.304000          -11.63406          -39.38607          -11.50440          -38.81026
       -1.300000          -11.72883          -39.81926          -11.59738          -39.23857
       -1.296000          -11.82700          -40.25608          -11.69367          -39.67056
       -1.292000          -11.92858          -40.69657          -11.79333          -40.10612
       -1.288000          -12.03366          -41.14090          -11.89641          -40.54544
       -1.284000          -12.14229          -41.58902          -12.00302          -40.98848
       -1.280000          -12.25454          -42.04113          -12.11316          -41.43545
       -1.276000          -12.37046          -42.49715          -12.22693          -41.88628
       -1.272000          -12.49012          -42.95725          -12.34435          -42.34113
       -1.268000          -12.61361          -43.42152          -12.46552          -42.80002
       -1.264000          -12.74098          -43.88999          -12.59056          -43.26303
       -1.260000          -12.87232          -44.36274          -12.71949          -43.73017
       -1.256000          -13.00774          -44.83978          -12.85240          -44.20167
       -1.252000          -13.14729          -45.32127          -12.98939          -44.67738
       -1.248000          -13.29109          -45.80724          -13.13055          -45.15747
       -1.244000          -13.43924          -46.29768          -13.27599          -45.64206
       -1.240000          -13.59182          -46.79261          -13.42576          -46.13111
       -1.236000          -13.74897          -47.29223          -13.58003          -46.62459
       -1.232000          -13.91076          -47.79650          -13.73888          -47.12270
       -1.228000          -14.07735          -48.30548          -13.90244          -47.62529
       -1.224000          -14.24880          -48.81911          -14.07077          -48.13263
       -1.220000          -14.42531          -49.33756          -14.24404          -48.64454
       -1.216000          -14.60693          -49.86077          -14.42235          -49.16101
       -1.212000          -14.79385          -50.38874          -14.60583          -49.68229
       -1.208000          -14.98615          -50.92149          -14.79461          -50.20813
       -1.204000          -15.18399          -51.45900          -14.98882          -50.73867
       -1.200000          -15.38752          -52.00120          -15.18854          -51.27390
       -1.196000          -15.59681          -52.54821          -15.39394          -51.81347
       -1.192000          -15.81201          -53.09980          -15.60510          -52.35777
       -1.188000          -16.03327          -53.65596          -15.82220          -52.90645
       -1.184000          -16.26063          -54.21663          -16.04524          -53.45947
       -1.180000          -16.49424          -54.78174          -16.27438          -54.01676
       -1.176000          -16.73417          -55.35119          -16.50963          -54.57808
       -1.172000          -16.98048          -55.92477          -16.75106          -55.14369
       -1.168000          -17.23320          -56.50234          -16.99874          -55.71318
       -1.164000          -17.49237          -57.08390          -17.25264          -56.28624
       -1.160000          -17.75795          -57.66917          -17.51275          -56.86295
       -1.156000          -18.02991          -58.25801          -17.77894          -57.44321
       -1.152000          -18.30814          -58.85028          -18.05120          -58.02670
       -1.148000          -18.59254          -59.44584          -18.32936          -58.61345
       -1.144000          -18.88293          -60.04451          -18.61320          -59.20316
       -1.140000          -19.17909          -60.64617          -18.90252          -59.79584
       -1.136000          -19.48074          -61.25072          -19.19703          -60.39125
       -1.132000          -19.78760          -61.85811          -19.49644          -60.98975
       -1.128000          -20.09933          -62.46843          -19.80041          -61.59088
       -1.124000          -20.41551          -63.08147          -20.10853          -62.19496
       -1.120000          -20.73575          -63.69765          -20.42045          -62.80215
       -1.116000          -21.05963          -64.31687          -20.73567          -63.41263
       -1.112000          -21.38667          -64.93970          -21.05385          -64.02670
       -1.108000          -21.71645          -65.56616          -21.37456          -64.64453
       -1.104000          -22.04857          -66.19693          -21.69738          -65.26675
       -1.100000          -22.38261          -66.83241          -22.02199          -65.89392
       -1.096000          -22.71822          -67.47315          -22.34800          -66.52652
       -1.092000          -23.05508          -68.11980          -22.67520          -67.16512
       -1.088000          -23.39293          -68.77320          -23.00337          -67.81055
       -1.084000          -23.73160          -69.43398          -23.33235          -68.46367
       -1.080000          -24.07095          -70.10307          -23.66209          -69.12507
       -1.076000          -24.41099          -70.78139          -23.99254          -69.79566
       -1.072000          -24.75171          -71.46977          -24.32379          -70.47628
       -1.068000          -25.09331          -72.16914          -24.65601          -71.16801
       -1.064000          -25.43600          -72.88051          -24.98935          -71.87164
       -1.060000          -25.78008          -73.60481          -25.32423          -72.58797
       -1.056000          -26.12595          -74.34302          -25.66107          -73.31810
       -1.052000          -26.47419          -75.09615          -26.00026          -74.06290
       -1.048000          -26.82537          -75.86501          -26.34253          -74.82307
       -1.044000          -27.18013          -76.65059          -26.68846          -75.59965
       -1.040000          -27.53937          -77.45358          -27.03882          -76.39329
       -1.036000          -27.90386          -78.27484          -27.39445          -77.20488
       -1.032000          -28.27455          -79.11497          -27.75617          -78.03495
       -1.028000          -28.65235          -79.97472          -28.12501          -78.88404
       -1.024000          -29.03833          -80.85447          -28.50187          -79.75267
       -1.020000          -29.43341          -81.75481          -28.88771          -80.64133
       -1.016000          -29.83873          -82.67599          -29.28352          -81.55046
       -1.012000          -30.25518          -83.61830          -29.69022          -82.48015
       -1.008000          -30.68384          -84.58199          -30.10886          -83.43052
       -1.004000          -31.12564          -85.56738          -30.54027          -84.40215
       -1.000000          -31.58154          -86.57452          -30.98541          -85.39487
       -0.996000          -32.05244          -87.60348          -31.44512          -86.40886
       -0.992000          -32.53921          -88.65424          -31.92019          -87.44426
       -0.988000          -33.04268          -89.72712          -32.41147          -88.50107
       -0.984000          -33.56362          -90.82203          -32.91979          -89.57942
       -0.980000          -34.10287          -91.93918          -33.44576          -90.67948
       -0.976000          -34.66121          -93.07852          -33.99022          -91.80102
       -0.972000          -35.23932          -94.24020          -34.55381          -92.94453
       -0.968000          -35.83801          -95.42432          -35.13731          -94.10995
       -0.964000          -36.45795          -96.63120          -35.74132          -95.29720
       -0.960000          -37.09987          -97.86075          -36.36656          -96.50719
       -0.956000          -37.76456          -99.11340          -37.01381          -97.73950
       -0.952000          -38.45278          -100.3893          -37.68382          -98.99432
       -0.948000          -39.16524          -101.6887          -38.37716          -100.2725
       -0.944000          -39.90282          -103.0120          -39.09469          -101.5733
       -0.940000          -40.66630          -104.3595          -39.83729          -102.8981
       -0.936000          -41.45654          -105.7313          -40.60561          -104.2469
       -0.932000          -42.27444          -107.1280          -41.40063          -105.6199
       -0.928000          -43.12096          -108.5499          -42.22318          -107.0174
       -0.924000          -43.99707          -109.9977          -43.07429          -108.4406
       -0.920000          -44.90380          -111.4714          -43.95481          -109.8891
       -0.916000          -45.84226          -112.9720          -44.86591          -111.3637
       -0.912000          -46.81356          -114.4996          -45.80859          -112.8646
       -0.908000          -47.81899          -116.0548          -46.78408          -114.3928
       -0.904000          -48.85977          -117.6383          -47.79344          -115.9488
       -0.900000          -49.93716          -119.2504          -48.83807          -117.5327
       -0.896000          -51.05271          -120.8920          -49.91948          -119.1456
       -0.892000          -52.20789          -122.5635          -51.03891          -120.7878
       -0.888000          -53.40429          -124.2655          -52.19783          -122.4597
       -0.884000          -54.64359          -125.9986          -53.39805          -124.1622
       -0.880000          -55.92765          -127.7635          -54.64112          -125.8961
       -0.876000          -57.25824          -129.5609          -55.92886          -127.6620
       -0.872000          -58.63741          -131.3913          -57.26316          -129.4601
       -0.868000          -60.06734          -133.2554          -58.64602          -131.2914
       -0.864000          -61.55019          -135.1537          -60.07965          -133.1565
       -0.860000          -63.08834          -137.0869          -61.56629          -135.0559
       -0.856000          -64.68446          -139.0558          -63.10838          -136.9900
       -0.852000          -66.34093          -141.0607          -64.70825          -138.9599
       -0.848000          -68.06074          -143.1024          -66.36871          -140.9662
       -0.844000          -69.84683          -145.1814          -68.09254          -143.0093
       -0.840000          -71.70235          -147.2981          -69.88274          -145.0897
       -0.836000          -73.63057          -149.4530          -71.74238          -147.2078
       -0.832000          -75.63498          -151.6465          -73.67480          -149.3640
       -0.828000          -77.71951          -153.8791          -75.68363          -151.5593
       -0.824000          -79.88775          -156.1510          -77.77258          -153.7934
       -0.820000          -82.14417          -158.4622          -79.94548          -156.0670
       -0.816000          -84.49304          -160.8134          -82.20656          -158.3803
       -0.812000          -86.93893          -163.2041          -84.56011          -160.7332
       -0.808000          -89.48676          -165.6344          -87.01093          -163.1261
       -0.804000          -92.14188          -168.1042          -89.56404          -165.5582
       -0.800000          -94.90968          -170.6132          -92.22437          -168.0304
       -0.796000          -97.79602          -173.1606          -94.99765          -170.5414
       -0.792000          -100.8070          -175.7457          -97.88948          -173.0911
       -0.788000          -103.9494          -178.3677          -100.9063          -175.6788
       -0.784000          -107.2298          -181.0255          -104.0546          -178.3034
       -0.780000          -110.6557          -183.7171          -107.3412          -180.9638
       -0.776000          -114.2346          -186.4415          -110.7734          -183.6585
       -0.772000          -117.9749          -189.1955          -114.3592          -186.3858
       -0.768000          -121.8852          -191.9773          -118.1063          -189.1426
       -0.764000          -125.9743          -194.7832          -122.0236          -191.9277
       -0.760000          -130.2522          -197.6102          -126.1202          -194.7370
       -0.756000          -134.7286          -200.4534          -130.4057          -197.5674
       -0.752000          -139.4143          -203.3081          -134.8901          -200.4145
       -0.748000          -144.3204          -206.1689          -139.5842          -203.2729
       -0.744000          -149.4587          -209.0287          -144.4992          -206.1375
       -0.740000          -154.8413          -211.8803          -149.6465          -209.0019
       -0.736000          -160.4809          -214.7148          -155.0385          -211.8576
       -0.732000          -166.3910          -217.5225          -160.6883          -214.6967
       -0.728000          -172.5851          -220.2920          -166.6086          -217.5098
       -0.724000          -179.0773          -223.0109          -172.8136          -220.2846
       -0.720000          -185.8826          -225.6644          -179.3175          -223.0085
       -0.716000          -193.0162          -228.2363          -186.1352          -225.6676
       -0.712000          -200.4922          -230.7079          -193.2809          -228.2450
       -0.708000          -208.3265          -233.0586          -200.7706          -230.7231
       -0.704000          -216.5341          -235.2655          -208.6193          -233.0802
       -0.700000          -225.1294          -237.3021          -216.8418          -235.2935
       -0.696000          -234.1269          -239.1393          -225.4534          -237.3369
       -0.692000          -243.5403          -240.7453          -234.4685          -239.1818
       -0.688000          -253.3811          -242.0838          -243.8999          -240.7954
       -0.684000          -263.6597          -243.1154          -253.7597          -242.1418
       -0.680000          -274.3844          -243.7966          -264.0592          -243.1814
       -0.676000          -285.5607          -244.0800          -274.8066          -243.8713
       -0.672000          -297.1895          -243.9131          -286.0062          -244.1634
       -0.668000          -309.2687          -243.2408          -297.6606          -244.0057
       -0.664000          -321.7901          -242.0024          -309.7680          -243.3424
       -0.660000          -334.7386          -240.1335          -322.3185          -242.1132
       -0.656000          -348.0931          -237.5668          -335.2993          -240.2537
       -0.652000          -361.8227          -234.2316          -348.6888          -237.6963
       -0.648000          -375.8875          -230.0551          -362.4566          -234.3699
       -0.644000          -390.2357          -224.9642          -376.5620          -230.2011
       -0.640000          -404.8039          -218.8854          -390.9545          -225.1174
       -0.636000          -419.5165          -211.7487          -405.5717          -219.0453
       -0.632000          -434.2818          -203.4883          -420.3358          -211.9128
       -0.628000          -448.9964          -194.0459          -435.1583          -203.6543
       -0.624000          -463.5412          -183.3722          -449.9337          -194.2113
       -0.620000          -477.7850          -171.4328          -464.5440          -183.5338
       -0.616000          -491.5830          -158.2092          -478.8575          -171.5862
       -0.612000          -504.7818          -143.7023          -492.7303          -158.3493
       -0.608000          -517.2211          -127.9351          -506.0080          -143.8225
       -0.604000          -528.7366          -110.9569          -518.5298          -128.0295
       -0.600000          -539.1672          -92.84289          -530.1312          -111.0173
       -0.596000          -548.3581          -73.69526          -540.6508          -92.86002
       -0.592000          -556.1665          -53.64275          -549.9321          -73.65957
       -0.588000          -562.4682          -32.84065          -557.8310          -53.54491
       -0.584000          -567.1622          -11.46425          -564.2223          -32.66950
       -0.580000          -570.1756           10.29399          -569.0033          -11.20831
       -0.576000          -571.4652           32.22824          -572.0992           10.64440
       -0.572000          -571.0229           54.12922          -573.4669           32.68427
       -0.568000          -568.8732           75.78848          -573.0952           54.70069
       -0.564000          -565.0735           97.00609          -571.0079           76.48502
       -0.560000          -559.7117           117.5944          -567.2621           97.83432
       -0.556000          -552.9009           137.3873          -561.9428           118.5617
       -0.552000          -544.7767           156.2415          -555.1637           138.4996
       -0.548000          -535.4897           174.0388          -547.0601           157.5016
       -0.544000          -525.2013           190.6895          -537.7825           175.4494
       -0.540000          -514.0779           206.1320          -527.4932           192.2525
       -0.536000          -502.2849           220.3300          -516.3571           207.8464
       -0.532000          -489.9843           233.2722          -504.5422           222.1953
       -0.528000          -477.3286           244.9702          -492.2097           235.2874
       -0.524000          -464.4601           255.4549          -479.5134           247.1333
       -0.520000          -451.5082           264.7707          -466.5960           257.7620
       -0.516000          -438.5875           272.9771          -453.5880           267.2200
       -0.512000          -425.7973           280.1425          -440.6037           275.5659
       -0.508000          -413.2246           286.3416          -427.7448           282.8678
       -0.504000          -400.9401           291.6541          -415.0962           289.2018
       -0.500000          -389.0008           296.1616          -402.7297           294.6468
       -0.496000          -377.4513           299.9465          -390.7019           299.2855
       -0.492000          -366.3254           303.0898          -379.0583           303.2000
       -0.488000          -355.6449           305.6708          -367.8306           306.4721
       -0.484000          -345.4223           307.7649          -357.0405           309.1799
       -0.480000          -335.6621           309.4445          -346.7001           311.4006
       -0.476000          -326.3608           310.7778          -336.8132           313.2049
       -0.472000          -317.5081           311.8268          -327.3747           314.6602
       -0.468000          -309.0875           312.6493          -318.3729           315.8275
       -0.464000          -301.0785           313.2974          -309.7921           316.7651
       -0.460000          -293.4557           313.8176          -301.6098           317.5225
       -0.456000          -286.1902           314.2505          -293.8003           318.1447
       -0.452000          -279.2506           314.6299          -286.3349           318.6694
       -0.448000          -272.6041           314.9848          -279.1815           319.1297
       -0.444000          -266.2160           315.3372          -272.3090           319.5505
       -0.440000          -260.0522           315.7034          -265.6829           319.9528
       -0.436000          -254.0783           316.0939          -259.2706           320.3495
       -0.432000          -248.2622           316.5136          -253.0405           320.7495
       -0.428000          -242.5729           316.9624          -246.9621           321.1563
       -0.424000          -236.9830           317.4363          -241.0083           321.5682
       -0.420000          -231.4678           317.9268          -235.1536           321.9799
       -0.416000          -226.0067           318.4228          -229.3778           322.3831
       -0.412000          -220.5823           318.9104          -223.6634           322.7668
       -0.408000          -215.1826           319.3745          -217.9968           323.1172
       -0.404000          -209.7984           319.7994          -212.3691           323.4218
       -0.400000          -204.4247           320.1689          -206.7730           323.6669
       -0.396000          -199.0606           320.4685          -201.2080           323.8394
       -0.392000          -193.7080           320.6837          -195.6737           323.9266
       -0.388000          -188.3711           320.8028          -190.1731           323.9172
       -0.384000          -183.0565           320.8148          -184.7119           323.8026
       -0.380000          -177.7733           320.7119          -179.2978           323.5759
       -0.376000          -172.5305           320.4886          -173.9381           323.2322
       -0.372000          -167.3385           320.1405          -168.6423           322.7676
       -0.368000          -162.2078           319.6663          -163.4193           322.1821
       -0.364000          -157.1489           319.0663          -158.2787           321.4753
       -0.360000          -152.1715           318.3433          -153.2291           320.6501
       -0.356000          -147.2854           317.5005          -148.2789           319.7110
       -0.352000          -142.4989           316.5432          -143.4357           318.6630
       -0.348000          -137.8195           315.4780          -138.7059           317.5120
       -0.344000          -133.2537           314.3120          -134.0954           316.2652
       -0.340000          -128.8069           313.0528          -129.6086           314.9306
       -0.336000          -124.4830           311.7092          -125.2491           313.5157
       -0.332000          -120.2852           310.2890          -121.0192           312.0290
       -0.328000          -116.2157           308.8013          -116.9207           310.4800
       -0.324000          -112.2753           307.2545          -112.9540           308.8755
       -0.320000          -108.4642           305.6572          -109.1191           307.2232
       -0.316000          -104.7817           304.0166          -105.4145           305.5325
       -0.312000          -101.2266           302.3409          -101.8391           303.8097
       -0.308000          -97.79662           300.6376          -98.39050           302.0620
       -0.304000          -94.48933           298.9124          -95.06562           300.2954
       -0.300000          -91.30224           297.1726          -91.86183           298.5170
       -0.296000          -88.23163           295.4229          -88.77556           296.7317
       -0.292000          -85.27429           293.6691          -85.80330           294.9435
       -0.288000          -82.42630           291.9157          -82.94106           293.1583
       -0.284000          -79.68404           290.1670          -80.18526           291.3792
       -0.280000          -77.04372           288.4269          -77.53165           289.6107
       -0.276000          -74.50117           286.6984          -74.97646           287.8551
       -0.272000          -72.05267           284.9849          -72.51578           286.1165
       -0.268000          -69.69422           283.2888          -70.14527           284.3965
       -0.264000          -67.42207           281.6125          -67.86160           282.6975
       -0.260000          -65.23253           279.9580          -65.66068           281.0208
       -0.256000          -63.12189           278.3268          -63.53899           279.3693
       -0.252000          -61.08670           276.7206          -61.49304           277.7437
       -0.248000          -59.12365           275.1406          -59.51934           276.1452
       -0.244000          -57.22923           273.5881          -57.61460           274.5745
       -0.240000          -55.40044           272.0630          -55.77560           273.0330
       -0.236000          -53.63428           270.5674          -53.99963           271.5208
       -0.232000          -51.92772           269.1006          -52.28336           270.0388
       -0.228000          -50.27801           267.6636          -50.62413           268.5868
       -0.224000          -48.68262           266.2571          -49.01944           267.1661
       -0.220000          -47.13886           264.8807          -47.46645           265.7760
       -0.216000          -45.64452           263.5347          -45.96309           264.4167
       -0.212000          -44.19704           262.2193          -44.50688           263.0889
       -0.208000          -42.79434           260.9341          -43.09552           261.7923
       -0.204000          -41.43441           259.6798          -41.72710           260.5259
       -0.200000          -40.11514           258.4557          -40.39947           259.2907
       -0.196000          -38.83465           257.2619          -39.11086           258.0859
       -0.192000          -37.59122           256.0982          -37.85942           256.9119
       -0.188000          -36.38301           254.9643          -36.64339           255.7680
       -0.184000          -35.20846           253.8601          -35.46116           254.6543
       -0.180000          -34.06604           252.7854          -34.31115           253.5700
       -0.176000          -32.95417           251.7396          -33.19181           252.5152
       -0.172000          -31.87146           250.7228          -32.10182           251.4897
       -0.168000          -30.81667           249.7345          -31.03992           250.4930
       -0.164000          -29.78834           248.7744          -30.00456           249.5249
       -0.160000          -28.78541           247.8424          -28.99473           248.5851
       -0.156000          -27.80654           246.9376          -28.00913           247.6728
       -0.152000          -26.85071           246.0604          -27.04669           246.7886
       -0.148000          -25.91691           245.2101          -26.10631           245.9312
       -0.144000          -25.00398           244.3866          -25.18697           245.1010
       -0.140000          -24.11103           243.5893          -24.28770           244.2975
       -0.136000          -23.23711           242.8184          -23.40758           243.5201
       -0.132000          -22.38129           242.0732          -22.54565           242.7690
       -0.128000          -21.54274           241.3530          -21.70112           242.0435
       -0.124000          -20.72068           240.6586          -20.87317           241.3433
       -0.120000          -19.91424           239.9890          -20.06090           240.6681
       -0.116000          -19.12269           239.3441          -19.26362           240.0181
       -0.112000          -18.34533           238.7235          -18.48067           239.3927
       -0.108000          -17.58139           238.1272          -17.71116           238.7916
       -0.104000          -16.83024           237.5545          -16.95454           238.2144
       -0.100000          -16.09125           237.0055          -16.21017           237.6611
       -0.096000          -15.36373           236.4798          -15.47733           237.1320
       -0.092000          -14.64713           235.9775          -14.75546           236.6252
       -0.088000          -13.94080           235.4981          -14.04397           236.1420
       -0.084000          -13.24419           235.0415          -13.34223           235.6817
       -0.080000          -12.55680           234.6074          -12.64979           235.2446
       -0.076000          -11.87802           234.1957          -11.96602           234.8299
       -0.072000          -11.20736           233.8062          -11.29040           234.4373
       -0.068000          -10.54436           233.4386          -10.62250           234.0671
       -0.064000          -9.888453           233.0931          -9.961751           233.7186
       -0.060000          -9.239185           232.7690          -9.307690           233.3922
       -0.056000          -8.596134           232.4666          -8.659872           233.0879
       -0.052000          -7.958772           232.1856          -8.017792           232.8045
       -0.048000          -7.326677           231.9260          -7.381029           232.5428
       -0.044000          -6.699461           231.6876          -6.749151           232.3026
       -0.040000          -6.076600           231.4702          -6.121681           232.0833
       -0.036000          -5.457757           231.2739          -5.498246           231.8854
       -0.032000          -4.842446           231.0984          -4.878371           231.7087
       -0.028000          -4.230290           230.9439          -4.261681           231.5533
       -0.024000          -3.620909           230.8100          -3.647780           231.4181
       -0.020000          -3.013850           230.6969          -3.036215           231.3043
       -0.016000          -2.408736           230.6042          -2.426616           231.2109
       -0.012000          -1.805210           230.5323          -1.818607           231.1386
       -0.008000          -1.202816           230.4811          -1.211743           231.0869
       -0.004000          -0.601200           230.4500          -0.605661           231.0555
        0.000000           0.000000           230.4399           0.000000           231.0452
        0.004000           0.601230           230.4500           0.605691           231.0555
        0.008000           1.202848           230.4811           1.211774           231.0869
        0.012000           1.805210           230.5323           1.818608           231.1386
        0.016000           2.408767           230.6042           2.426649           231.2109
        0.020000           3.013850           230.6969           3.036215           231.3043
        0.024000           3.620909           230.8100           3.647780           231.4181
        0.028000           4.230321           230.9439           4.261714           231.5533
        0.032000           4.842445           231.0984           4.878371           231.7087
        0.036000           5.457757           231.2739           5.498246           231.8854
        0.040000           6.076632           231.4703           6.121711           232.0833
        0.044000           6.699460           231.6876           6.749150           232.3026
        0.048000           7.326710           231.9260           7.381063           232.5428
        0.052000           7.958804           232.1856           8.017824           232.8045
        0.056000           8.596134           232.4666           8.659870           233.0879
        0.060000           9.239221           232.7690           9.307721           233.3922
        0.064000           9.888486           233.0932           9.961786           233.7186
        0.068000           10.54436           233.4386           10.62250           234.0671
        0.072000           11.20740           233.8062           11.29043           234.4373
        0.076000           11.87805           234.1957           11.96605           234.8299
        0.080000           12.55680           234.6074           12.64979           235.2446
        0.084000           13.24423           235.0415           13.34226           235.6818
        0.088000           13.94080           235.4981           14.04397           236.1420
        0.092000           14.64713           235.9775           14.75546           236.6252
        0.096000           15.36377           236.4798           15.47736           237.1320
        0.100000           16.09125           237.0056           16.21017           237.6611
        0.104000           16.83028           237.5545           16.95458           238.2144
        0.108000           17.58143           238.1272           17.71120           238.7916
        0.112000           18.34533           238.7235           18.48067           239.3927
        0.116000           19.12273           239.3442           19.26366           240.0182
        0.120000           19.91428           239.9891           20.06094           240.6682
        0.124000           20.72068           240.6586           20.87317           241.3433
        0.128000           21.54278           241.3530           21.70116           242.0435
        0.132000           22.38134           242.0732           22.54570           242.7690
        0.136000           23.23711           242.8184           23.40758           243.5201
        0.140000           24.11107           243.5894           24.28774           244.2975
        0.144000           25.00398           244.3866           25.18697           245.1010
        0.148000           25.91692           245.2101           26.10631           245.9312
        0.152000           26.85077           246.0604           27.04674           246.7886
        0.156000           27.80654           246.9376           28.00914           247.6729
        0.160000           28.78541           247.8424           28.99473           248.5851
        0.164000           29.78839           248.7744           30.00463           249.5249
        0.168000           30.81667           249.7345           31.03992           250.4930
        0.172000           31.87151           250.7228           32.10187           251.4897
        0.176000           32.95422           251.7396           33.19187           252.5152
        0.180000           34.06604           252.7854           34.31115           253.5701
        0.184000           35.20852           253.8602           35.46121           254.6543
        0.188000           36.38308           254.9644           36.64345           255.7682
        0.192000           37.59122           256.0981           37.85942           256.9119
        0.196000           38.83471           257.2620           39.11092           258.0860
        0.200000           40.11514           258.4557           40.39947           259.2907
        0.204000           41.43441           259.6798           41.72710           260.5259
        0.208000           42.79441           260.9341           43.09560           261.7923
        0.212000           44.19704           262.2193           44.50688           263.0890
        0.216000           45.64452           263.5347           45.96309           264.4167
        0.220000           47.13894           264.8807           47.46654           265.7761
        0.224000           48.68262           266.2571           49.01944           267.1660
        0.228000           50.27809           267.6637           50.62421           268.5869
        0.232000           51.92779           269.1007           52.28344           270.0389
        0.236000           53.63428           270.5674           53.99963           271.5208
        0.240000           55.40053           272.0631           55.77570           273.0331
        0.244000           57.22933           273.5881           57.61469           274.5744
        0.248000           59.12365           275.1406           59.51934           276.1452
        0.252000           61.08680           276.7206           61.49316           277.7437
        0.256000           63.12199           278.3268           63.53909           279.3693
        0.260000           65.23252           279.9580           65.66068           281.0208
        0.264000           67.42218           281.6126           67.86173           282.6977
        0.268000           69.69422           283.2888           70.14528           284.3965
        0.272000           72.05267           284.9849           72.51577           286.1165
        0.276000           74.50130           286.6985           74.97658           287.8552
        0.280000           77.04372           288.4269           77.53166           289.6107
        0.284000           79.68418           290.1670           80.18538           291.3792
        0.288000           82.42645           291.9157           82.94119           293.1585
        0.292000           85.27429           293.6691           85.80330           294.9435
        0.296000           88.23178           295.4229           88.77574           296.7318
        0.300000           91.30240           297.1727           91.86198           298.5171
        0.304000           94.48943           298.9124           95.06571           300.2955
        0.308000           97.79669           300.6376           98.39057           302.0621
        0.312000           101.2267           302.3410           101.8393           303.8098
        0.316000           104.7818           304.0166           105.4146           305.5326
        0.320000           108.4643           305.6572           109.1192           307.2232
        0.324000           112.2753           307.2545           112.9540           308.8755
        0.328000           116.2158           308.8014           116.9208           310.4800
        0.332000           120.2854           310.2891           121.0194           312.0291
        0.336000           124.4830           311.7092           125.2491           313.5157
        0.340000           128.8069           313.0528           129.6087           314.9306
        0.344000           133.2539           314.3120           134.0956           316.2652
        0.348000           137.8195           315.4780           138.7059           317.5120
        0.352000           142.4991           316.5432           143.4359           318.6630
        0.356000           147.2856           317.5005           148.2791           319.7110
        0.360000           152.1717           318.3433           153.2292           320.6501
        0.364000           157.1490           319.0663           158.2788           321.4753
        0.368000           162.2081           319.6664           163.4196           322.1822
        0.372000           167.3387           320.1405           168.6425           322.7676
        0.376000           172.5306           320.4886           173.9382           323.2322
        0.380000           177.7733           320.7119           179.2978           323.5759
        0.384000           183.0567           320.8148           184.7121           323.8026
        0.388000           188.3713           320.8027           190.1733           323.9172
        0.392000           193.7080           320.6837           195.6737           323.9266
        0.396000           199.0608           320.4685           201.2081           323.8394
        0.400000           204.4250           320.1688           206.7733           323.6669
        0.404000           209.7984           319.7994           212.3691           323.4218
        0.408000           215.1828           319.3745           217.9970           323.1172
        0.412000           220.5826           318.9104           223.6636           322.7668
        0.416000           226.0067           318.4227           229.3778           322.3831
        0.420000           231.4680           317.9268           235.1538           321.9800
        0.424000           236.9833           317.4363           241.0086           321.5682
        0.428000           242.5731           316.9624           246.9622           321.1563
        0.432000           248.2623           316.5135           253.0407           320.7495
        0.436000           254.0786           316.0939           259.2710           320.3495
        0.440000           260.0523           315.7034           265.6831           319.9528
        0.444000           266.2162           315.3372           272.3091           319.5505
        0.448000           272.6040           314.9849           279.1815           319.1297
        0.452000           279.2509           314.6300           286.3351           318.6694
        0.456000           286.1905           314.2505           293.8006           318.1447
        0.460000           293.4557           313.8176           301.6098           317.5225
        0.464000           301.0787           313.2974           309.7924           316.7651
        0.468000           309.0879           312.6493           318.3734           315.8274
        0.472000           317.5080           311.8268           327.3747           314.6602
        0.476000           326.3610           310.7777           336.8135           313.2048
        0.480000           335.6626           309.4445           346.7007           311.4005
        0.484000           345.4225           307.7649           357.0408           309.1799
        0.488000           355.6451           305.6707           367.8309           306.4720
        0.492000           366.3260           303.0896           379.0588           303.1998
        0.496000           377.4516           299.9464           390.7021           299.2854
        0.500000           389.0011           296.1615           402.7300           294.6467
        0.504000           400.9401           291.6541           415.0962           289.2018
        0.508000           413.2250           286.3415           427.7451           282.8677
        0.512000           425.7979           280.1422           440.6043           275.5656
        0.516000           438.5875           272.9771           453.5879           267.2200
        0.520000           451.5085           264.7705           466.5963           257.7617
        0.524000           464.4608           255.4544           479.5140           247.1327
        0.528000           477.3287           244.9702           492.2097           235.2874
        0.532000           489.9846           233.2719           504.5424           222.1950
        0.536000           502.2856           220.3293           516.3578           207.8457
        0.540000           514.0782           206.1316           527.4933           192.2521
        0.544000           525.2015           190.6890           537.7828           175.4490
        0.548000           535.4902           174.0379           547.0606           157.5006
        0.552000           544.7769           156.2411           555.1639           138.4991
        0.556000           552.9011           137.3868           561.9429           118.5612
        0.560000           559.7117           117.5944           567.2621           97.83432
        0.564000           565.0736           97.00556           571.0079           76.48447
        0.568000           568.8733           75.78794           573.0952           54.70013
        0.572000           571.0229           54.12923           573.4669           32.68427
        0.576000           571.4652           32.22768           572.0992           10.64385
        0.580000           570.1754           10.29288           569.0031          -11.20941
        0.584000           567.1622          -11.46425           564.2222          -32.66950
        0.588000           562.4681          -32.84119           557.8308          -53.54544
        0.592000           556.1661          -53.64378           549.9316          -73.66056
        0.596000           548.3581          -73.69526           540.6508          -92.86001
        0.600000           539.1671          -92.84335           530.1309          -111.0178
        0.604000           528.7360          -110.9578           518.5293          -128.0303
        0.608000           517.2207          -127.9355           506.0074          -143.8229
        0.612000           504.7815          -143.7027           492.7299          -158.3496
        0.616000           491.5823          -158.2099           478.8568          -171.5869
        0.620000           477.7845          -171.4331           464.5437          -183.5342
        0.624000           463.5407          -183.3725           449.9334          -194.2116
        0.628000           448.9964          -194.0459           435.1582          -203.6543
        0.632000           434.2814          -203.4886           420.3354          -211.9130
        0.636000           419.5158          -211.7490           405.5710          -219.0456
        0.640000           404.8038          -218.8855           390.9545          -225.1174
        0.644000           390.2353          -224.9644           376.5616          -230.2013
        0.648000           375.8867          -230.0554           362.4559          -234.3700
        0.652000           361.8227          -234.2316           348.6888          -237.6963
        0.656000           348.0928          -237.5669           335.2990          -240.2538
        0.660000           334.7380          -240.1335           322.3179          -242.1134
        0.664000           321.7898          -242.0024           309.7677          -243.3425
        0.668000           309.2683          -243.2409           297.6603          -244.0057
        0.672000           297.1889          -243.9131           286.0057          -244.1634
        0.676000           285.5604          -244.0800           274.8063          -243.8712
        0.680000           274.3841          -243.7966           264.0590          -243.1815
        0.684000           263.6597          -243.1154           253.7597          -242.1417
        0.688000           253.3808          -242.0837           243.8997          -240.7954
        0.692000           243.5399          -240.7452           234.4680          -239.1817
        0.696000           234.1269          -239.1394           225.4535          -237.3369
        0.700000           225.1292          -237.3021           216.8416          -235.2935
        0.704000           216.5337          -235.2654           208.6189          -233.0801
        0.708000           208.3265          -233.0586           200.7706          -230.7231
        0.712000           200.4920          -230.7079           193.2807          -228.2449
        0.716000           193.0157          -228.2362           186.1349          -225.6675
        0.720000           185.8826          -225.6644           179.3175          -223.0085
        0.724000           179.0772          -223.0108           172.8134          -220.2845
        0.728000           172.5847          -220.2919           166.6083          -217.5096
        0.732000           166.3908          -217.5224           160.6881          -214.6967
        0.736000           160.4807          -214.7147           155.0384          -211.8575
        0.740000           154.8410          -211.8801           149.6462          -209.0018
        0.744000           149.4586          -209.0287           144.4990          -206.1375
        0.748000           144.3203          -206.1688           139.5840          -203.2728
        0.752000           139.4143          -203.3081           134.8901          -200.4145
        0.756000           134.7285          -200.4534           130.4055          -197.5673
        0.760000           130.2519          -197.6101           126.1200          -194.7369
        0.764000           125.9743          -194.7832           122.0236          -191.9277
        0.768000           121.8851          -191.9772           118.1062          -189.1425
        0.772000           117.9747          -189.1953           114.3591          -186.3857
        0.776000           114.2346          -186.4415           110.7734          -183.6584
        0.780000           110.6556          -183.7171           107.3411          -180.9637
        0.784000           107.2296          -181.0253           104.0545          -178.3032
        0.788000           103.9493          -178.3676           100.9063          -175.6787
        0.792000           100.8070          -175.7457           97.88943          -173.0910
        0.796000           97.79586          -173.1604           94.99752          -170.5413
        0.800000           94.90960          -170.6131           92.22429          -168.0304
        0.804000           92.14180          -168.1042           89.56396          -165.5581
        0.808000           89.48676          -165.6344           87.01093          -163.1261
        0.812000           86.93885          -163.2040           84.56005          -160.7332
        0.816000           84.49291          -160.8133           82.20645          -158.3802
        0.820000           82.14417          -158.4622           79.94548          -156.0670
        0.824000           79.88770          -156.1509           77.77253          -153.7934
        0.828000           77.71939          -153.8790           75.68356          -151.5592
        0.832000           75.63498          -151.6465           73.67480          -149.3640
        0.836000           73.63052          -149.4529           71.74236          -147.2077
        0.840000           71.70224          -147.2980           69.88266          -145.0895
        0.844000           69.84678          -145.1814           68.09250          -143.0092
        0.848000           68.06069          -143.1024           66.36867          -140.9662
        0.852000           66.34084          -141.0605           64.70816          -138.9598
        0.856000           64.68441          -139.0558           63.10835          -136.9900
        0.860000           63.08830          -137.0868           61.56626          -135.0558
        0.864000           61.55019          -135.1537           60.07965          -133.1565
        0.868000           60.06730          -133.2553           58.64599          -131.2914
        0.872000           58.63735          -131.3912           57.26309          -129.4601
        0.876000           57.25824          -129.5609           55.92886          -127.6620
        0.880000           55.92762          -127.7635           54.64109          -125.8960
        0.884000           54.64352          -125.9985           53.39799          -124.1622
        0.888000           53.40429          -124.2655           52.19782          -122.4597
        0.892000           52.20786          -122.5634           51.03888          -120.7877
        0.896000           51.05265          -120.8919           49.91941          -119.1456
        0.900000           49.93716          -119.2504           48.83807          -117.5327
        0.904000           48.85973          -117.6383           47.79341          -115.9487
        0.908000           47.81894          -116.0547           46.78404          -114.3927
        0.912000           46.81354          -114.4996           45.80857          -112.8646
        0.916000           45.84224          -112.9720           44.86589          -111.3637
        0.920000           44.90376          -111.4714           43.95476          -109.8890
        0.924000           43.99704          -109.9977           43.07427          -108.4405
        0.928000           43.12093          -108.5499           42.22314          -107.0173
        0.932000           42.27444          -107.1280           41.40063          -105.6199
        0.936000           41.45651          -105.7312           40.60559          -104.2468
        0.940000           40.66625          -104.3594           39.83725          -102.8980
        0.944000           39.90282          -103.0120           39.09469          -101.5733
        0.948000           39.16523          -101.6887           38.37715          -100.2724
        0.952000           38.45274          -100.3892           37.68378          -98.99423
        0.956000           37.76457          -99.11340           37.01381          -97.73950
        0.960000           37.09985          -97.86070           36.36655          -96.50716
        0.964000           36.45791          -96.63112           35.74128          -95.29716
        0.968000           35.83800          -95.42427           35.13730          -94.10992
        0.972000           35.23931          -94.24017           34.55379          -92.94452
        0.976000           34.66119          -93.07848           33.99019          -91.80096
        0.980000           34.10286          -91.93916           33.44575          -90.67945
        0.984000           33.56360          -90.82200           32.91978          -89.57938
        0.988000           33.04268          -89.72713           32.41147          -88.50108
        0.992000           32.53920          -88.65420           31.92018          -87.44423
        0.996000           32.05241          -87.60342           31.44509          -86.40882
        1.000000           31.58154          -86.57453           30.98541          -85.39487
        1.004000           31.12563          -85.56734           30.54027          -84.40211
        1.008000           30.68382          -84.58195           30.10884          -83.43047
        1.012000           30.25518          -83.61830           29.69022          -82.48015
        1.016000           29.83872          -82.67596           29.28350          -81.55045
        1.020000           29.43339          -81.75477           28.88769          -80.64127
        1.024000           29.03832          -80.85447           28.50186          -79.75263
        1.028000           28.65234          -79.97471           28.12500          -78.88400
        1.032000           28.27454          -79.11493           27.75614          -78.03490
        1.036000           27.90385          -78.27483           27.39444          -77.20486
        1.040000           27.53936          -77.45355           27.03881          -76.39326
        1.044000           27.18013          -76.65058           26.68846          -75.59966
        1.048000           26.82535          -75.86499           26.34252          -74.82303
        1.052000           26.47417          -75.09612           26.00024          -74.06286
        1.056000           26.12595          -74.34302           25.66107          -73.31809
        1.060000           25.78007          -73.60480           25.32422          -72.58795
        1.064000           25.43599          -72.88046           24.98933          -71.87161
        1.068000           25.09331          -72.16914           24.65600          -71.16800
        1.072000           24.75170          -71.46974           24.32378          -70.47628
        1.076000           24.41097          -70.78136           23.99252          -69.79562
        1.080000           24.07095          -70.10306           23.66209          -69.12507
        1.084000           23.73158          -69.43398           23.33235          -68.46364
        1.088000           23.39291          -68.77316           23.00335          -67.81054
        1.092000           23.05507          -68.11979           22.67519          -67.16510
        1.096000           22.71820          -67.47314           22.34799          -66.52650
        1.100000           22.38259          -66.83236           22.02197          -65.89388
        1.104000           22.04857          -66.19691           21.69737          -65.26673
        1.108000           21.71645          -65.56615           21.37456          -64.64453
        1.112000           21.38668          -64.93970           21.05385          -64.02670
        1.116000           21.05962          -64.31686           20.73566          -63.41261
        1.120000           20.73574          -63.69761           20.42043          -62.80211
        1.124000           20.41551          -63.08147           20.10853          -62.19495
        1.128000           20.09931          -62.46842           19.80040          -61.59087
        1.132000           19.78759          -61.85808           19.49642          -60.98973
        1.136000           19.48074          -61.25072           19.19703          -60.39125
        1.140000           19.17908          -60.64615           18.90251          -59.79583
        1.144000           18.88292          -60.04448           18.61319          -59.20312
        1.148000           18.59253          -59.44581           18.32935          -58.61345
        1.152000           18.30813          -58.85025           18.05119          -58.02667
        1.156000           18.02990          -58.25798           17.77893          -57.44317
        1.160000           17.75795          -57.66917           17.51275          -56.86296
        1.164000           17.49236          -57.08387           17.25263          -56.28621
        1.168000           17.23320          -56.50233           16.99874          -55.71318
        1.172000           16.98047          -55.92476           16.75106          -55.14368
        1.176000           16.73416          -55.35116           16.50961          -54.57805
        1.180000           16.49424          -54.78174           16.27438          -54.01678
        1.184000           16.26063          -54.21661           16.04524          -53.45946
        1.188000           16.03326          -53.65594           15.82219          -52.90642
        1.192000           15.81201          -53.09979           15.60510          -52.35777
        1.196000           15.59680          -52.54820           15.39393          -51.81345
        1.200000           15.38750          -52.00119           15.18853          -51.27387
        1.204000           15.18399          -51.45901           14.98882          -50.73867
        1.208000           14.98615          -50.92148           14.79460          -50.20812
        1.212000           14.79384          -50.38872           14.60582          -49.68225
        1.216000           14.60694          -49.86077           14.42235          -49.16101
        1.220000           14.42531          -49.33754           14.24403          -48.64452
        1.224000           14.24880          -48.81911           14.07077          -48.13263
        1.228000           14.07734          -48.30547           13.90243          -47.62527
        1.232000           13.91075          -47.79648           13.73887          -47.12267
        1.236000           13.74897          -47.29224           13.58003          -46.62459
        1.240000           13.59182          -46.79260           13.42576          -46.13110
        1.244000           13.43923          -46.29765           13.27598          -45.64204
        1.248000           13.29109          -45.80724           13.13054          -45.15747
        1.252000           13.14729          -45.32127           12.98939          -44.67737
        1.256000           13.00773          -44.83976           12.85239          -44.20165
        1.260000           12.87232          -44.36274           12.71949          -43.73016
        1.264000           12.74097          -43.88997           12.59055          -43.26301
        1.268000           12.61361          -43.42150           12.46551          -42.79999
        1.272000           12.49012          -42.95725           12.34435          -42.34113
        1.276000           12.37045          -42.49714           12.22693          -41.88626
        1.280000           12.25453          -42.04110           12.11316          -41.43543
        1.284000           12.14229          -41.58902           12.00302          -40.98848
        1.288000           12.03366          -41.14089           11.89641          -40.54541
        1.292000           11.92858          -40.69658           11.79333          -40.10613
        1.296000           11.82700          -40.25606           11.69367          -39.67056
        1.300000           11.72882          -39.81923           11.59737          -39.23856
        1.304000           11.63406          -39.38607           11.50440          -38.81026
        1.308000           11.54261          -38.95641           11.41471          -38.38528
        1.312000           11.45446          -38.53020           11.32825          -37.96379
        1.316000           11.36957          -38.10740           11.24500          -37.54557
        1.320000           11.28790          -37.68783           11.16489          -37.13055
        1.324000           11.20941          -37.27152           11.08791          -36.71877
        1.328000           11.13409          -36.85830           11.01407          -36.31004
        1.332000           11.06193          -36.44812           10.94331          -35.90416
        1.336000           10.99291          -36.04084           10.87561          -35.50126
        1.340000           10.92702          -35.63638           10.81100          -35.10107
        1.344000           10.86428          -35.23466           10.74949          -34.70356
        1.348000           10.80470          -34.83563           10.69110          -34.30861
        1.352000           10.74830          -34.43914           10.63578          -33.91624
        1.356000           10.69510          -34.04508           10.58364          -33.52625
        1.360000           10.64515          -33.65343           10.53468          -33.13862
        1.364000           10.59849          -33.26411           10.48893          -32.75325
        1.368000           10.55516          -32.87699           10.44648          -32.36993
        1.372000           10.51524          -32.49202           10.40738          -31.98887
        1.376000           10.47877          -32.10915           10.37166          -31.60978
        1.380000           10.44584          -31.72823           10.33941          -31.23265
        1.384000           10.41652          -31.34937           10.31072          -30.85745
        1.388000           10.39091          -30.97233           10.28565          -30.48405
        1.392000           10.36907          -30.59710           10.26432          -30.11237
        1.396000           10.35112          -30.22376           10.24679          -29.74260
        1.400000           10.33715          -29.85213           10.23318          -29.37451
        1.404000           10.32727          -29.48221           10.22360          -29.00793
        1.408000           10.32160          -29.11395           10.21815          -28.64307
        1.412000           10.32027          -28.74742           10.21697          -28.27991
        1.416000           10.32340          -28.38250           10.22017          -27.91826
        1.420000           10.33114          -28.01923           10.22789          -27.55815
        1.424000           10.34362          -27.65756           10.24027          -27.19965
        1.428000           10.36100          -27.29752           10.25751          -26.84271
        1.432000           10.38346          -26.93911           10.27969          -26.48736
        1.436000           10.41117          -26.58243           10.30705          -26.13362
        1.440000           10.44431          -26.22735           10.33975          -25.78151
        1.444000           10.48308          -25.87403           10.37798          -25.43101
        1.448000           10.52769          -25.52252           10.42193          -25.08226
        1.452000           10.57834          -25.17284           10.47182          -24.73531
        1.456000           10.63527          -24.82516           10.52789          -24.39018
        1.460000           10.69872          -24.47950           10.59038          -24.04702
        1.464000           10.76894          -24.13602           10.65948          -23.70597
        1.468000           10.84617          -23.79486           10.73552          -23.36706
        1.472000           10.93071          -23.45620           10.81869          -23.03062
        1.476000           11.02281          -23.12024           10.90930          -22.69671
        1.480000           11.12276          -22.78722           11.00763          -22.36565
        1.484000           11.23087          -22.45734           11.11399          -22.03758
        1.488000           11.34744          -22.13094           11.22864          -21.71275
        1.492000           11.47276          -21.80833           11.35191          -21.39160
        1.496000           11.60715          -21.48987           11.48409          -21.07435
        1.500000           11.75090          -21.17602           11.62548          -20.76149
        1.504000           11.90435          -20.86717           11.77645          -20.45345
        1.508000           12.06781          -20.56383           11.93723          -20.15059
        1.512000           12.24156          -20.26659           12.10818          -19.85357
        1.516000           12.42592          -19.97604           12.28959          -19.56295
        1.520000           12.62113          -19.69289           12.48174          -19.27928
        1.524000           12.82745          -19.41791           12.68489          -19.00345
        1.528000           13.04518          -19.15186           12.89933          -18.73611
        1.532000           13.27448          -18.89571           13.12527          -18.47824
        1.536000           13.51551          -18.65040           13.36290          -18.23068
        1.540000           13.76838          -18.41712           13.61235          -17.99463
        1.544000           14.03312          -18.19700           13.87368          -17.77115
        1.548000           14.30963          -17.99140           14.14688          -17.56153
        1.552000           14.59780          -17.80164           14.43191          -17.36716
        1.556000           14.89728          -17.62934           14.72840          -17.18950
        1.560000           15.20759          -17.47612           15.03609          -17.03016
        1.564000           15.52804          -17.34373           15.35426          -16.89090
        1.568000           15.85766          -17.23390           15.68212          -16.77344
        1.572000           16.19535          -17.14849           16.01864          -16.67963
        1.576000           16.53955          -17.08937           16.36245          -16.61136
        1.580000           16.88846          -17.05841           16.71189          -16.57048
        1.584000           17.23985          -17.05736           17.06484          -16.55882
        1.588000           17.59117          -17.08775           17.41893          -16.57810
        1.592000           17.93943          -17.15100           17.77132          -16.62976
        1.596000           18.28138          -17.24812           18.11890          -16.71497
        1.600000           18.61329          -17.37985           18.45807          -16.83467
        1.604000           18.93122          -17.54632           18.78499          -16.98923
        1.608000           19.23099          -17.74709           19.09550          -17.17849
        1.612000           19.50825          -17.98116           19.38533          -17.40177
        1.616000           19.75868          -18.24681           19.65016          -17.65755
        1.620000           19.97812          -18.54158           19.88556          -17.94373
        1.624000           20.16256          -18.86232           20.08753          -18.25745
        1.628000           20.30848          -19.20514           20.25227          -18.59509
        1.632000           20.41294          -19.56556           20.37660          -18.95241
        1.636000           20.47361          -19.93850           20.45782          -19.32452
        1.640000           20.48903          -20.31870           20.49412          -19.70634
        1.644000           20.45858          -20.70050           20.48451          -20.09206
        1.648000           20.38251          -21.07827           20.42880          -20.47619
        1.652000           20.26199          -21.44650           20.32785          -20.85312
        1.656000           20.09899          -21.80000           20.18327          -21.21733
        1.660000           19.89626          -22.13398           19.99748          -21.56394
        1.664000           19.65712          -22.44433           19.77368          -21.88844
        1.668000           19.38544          -22.72752           19.51543          -22.18707
        1.672000           19.08537          -22.98072           19.22680          -22.45675
        1.676000           18.76126          -23.20187           18.91221          -22.69492
        1.680000           18.41759          -23.38960           18.57607          -22.90006
        1.684000           18.05863          -23.54332           18.22271          -23.07111
        1.688000           17.68857          -23.66282           17.85646          -23.20777
        1.692000           17.31131          -23.74857           17.48138          -23.31035
        1.696000           16.93047          -23.80149           17.10119          -23.37947
        1.700000           16.54927          -23.82279           16.71934          -23.41617
        1.704000           16.17061          -23.81403           16.33883          -23.42203
        1.708000           15.79690          -23.77683           15.96231          -23.39854
        1.712000           15.43032          -23.71313           15.59205          -23.34766
        1.716000           15.07261          -23.62483           15.23005          -23.27117
        1.720000           14.72523          -23.51378           14.87783          -23.17107
        1.724000           14.38937          -23.38197           14.53669          -23.04926
        1.728000           14.06590          -23.23123           14.20767          -22.90759
        1.732000           13.75547          -23.06332           13.89150          -22.74794
        1.736000           13.45857          -22.87993           13.58873          -22.57207
        1.740000           13.17549          -22.68268           13.29975          -22.38158
        1.744000           12.90642          -22.47299           13.02478          -22.17793
        1.748000           12.65142          -22.25223           12.76393          -21.96257
        1.752000           12.41037          -22.02165           12.51714          -21.73684
        1.756000           12.18322          -21.78239           12.28435          -21.50191
        1.760000           11.96977          -21.53548           12.06542          -21.25884
        1.764000           11.76981          -21.28183           11.86017          -21.00865
        1.768000           11.58310          -21.02232           11.66829          -20.75214
        1.772000           11.40938          -20.75772           11.48962          -20.49021
        1.776000           11.24836          -20.48863           11.32379          -20.22349
        1.780000           11.09976          -20.21570           11.17059          -19.95260
        1.784000           10.96333          -19.93948           11.02975          -19.67816
        1.788000           10.83879          -19.66041           10.90097          -19.40071
        1.792000           10.72589          -19.37892           10.78400          -19.12060
        1.796000           10.62443          -19.09543           10.67863          -18.83831
        1.800000           10.53415          -18.81024           10.58463          -18.55413
        1.804000           10.45487          -18.52361           10.50175          -18.26837
        1.808000           10.38643          -18.23586           10.42986          -17.98135
        1.812000           10.32867          -17.94720           10.36878          -17.69335
        1.816000           10.28148          -17.65790           10.31842          -17.40452
        1.820000           10.24477          -17.36805           10.27863          -17.11509
        1.824000           10.21845          -17.07789           10.24935          -16.82527
        1.828000           10.20249          -16.78759           10.23053          -16.53523
        1.832000           10.19688          -16.49728           10.22215          -16.24511
        1.836000           10.20162          -16.20714           10.22422          -15.95506
        1.840000           10.21677          -15.91734           10.23675          -15.66530
        1.844000           10.24239          -15.62797           10.25983          -15.37585
        1.848000           10.27859          -15.33922           10.29354          -15.08704
        1.852000           10.32550          -15.05127           10.33801          -14.79891
        1.856000           10.38326          -14.76427           10.39339          -14.51171
        1.860000           10.45206          -14.47848           10.45982          -14.22562
        1.864000           10.53214          -14.19404           10.53754          -13.94080
        1.868000           10.62372          -13.91119           10.62679          -13.65749
        1.872000           10.72708          -13.63024           10.72787          -13.37605
        1.876000           10.84252          -13.35145           10.84101          -13.09664
        1.880000           10.97035          -13.07521           10.96654          -12.81968
        1.884000           11.11092          -12.80188           11.10482          -12.54557
        1.888000           11.26462          -12.53186           11.25623          -12.27461
        1.892000           11.43182          -12.26565           11.42112          -12.00737
        1.896000           11.61294          -12.00379           11.59993          -11.74436
        1.900000           11.80841          -11.74691           11.79305          -11.48616
        1.904000           12.01863          -11.49568           12.00093          -11.23346
        1.908000           12.24404          -11.25096           12.22396          -10.98704
        1.912000           12.48508          -11.01350           12.46262          -10.74777
        1.916000           12.74214          -10.78432           12.71733          -10.51648
        1.920000           13.01562          -10.56449           12.98845          -10.29438
        1.924000           13.30585          -10.35521           13.27635          -10.08248
        1.928000           13.61309          -10.15783           13.58130          -9.882215
        1.932000           13.93762          -9.973718           13.90357          -9.694905
        1.936000           14.27952          -9.804469           14.24336          -9.522183
        1.940000           14.63882          -9.651820           14.60060          -9.365632
        1.944000           15.01536          -9.517608           14.97525          -9.227154
        1.948000           15.40882          -9.403775           15.36706          -9.108630
        1.952000           15.81868          -9.312462           15.77551          -9.012219
        1.956000           16.24426          -9.245832           16.19993          -8.940060
        1.960000           16.68447          -9.206203           16.63942          -8.894445
        1.964000           17.13802          -9.195864           17.09271          -8.877650
        1.968000           17.60323          -9.217185           17.55817          -8.892114
        1.972000           18.07809          -9.272468           18.03392          -8.940118
        1.976000           18.56012          -9.363960           18.51757          -9.023962
        1.980000           19.04663          -9.493722           19.00645          -9.145796
        1.984000           19.53434          -9.663622           19.49752          -9.307490
        1.988000           20.01964          -9.875167           19.98710          -9.510745
        1.992000           20.49859          -10.12955           20.47145          -9.756808
        1.996000           20.96685          -10.42743           20.94618          -10.04648
        2.000000           21.41999          -10.76903           21.40700          -10.38016
        2.004000           21.85328          -11.15388           21.84908          -10.75756
        2.008000           22.26194          -11.58091           22.26776          -11.17778
        2.012000           22.64129          -12.04839           22.65821          -11.63929
        2.016000           22.98674          -12.55390           23.01574          -12.13984
        2.020000           23.29398          -13.09437           23.33601          -12.67654
        2.024000           23.55917          -13.66624           23.61498          -13.24604
        2.028000           23.77885          -14.26535           23.84899          -13.84421
        2.032000           23.95013          -14.88704           24.03493          -14.46663
        2.036000           24.07075          -15.52644           24.17032          -15.10833
        2.040000           24.13906          -16.17825           24.25327          -15.76414
        2.044000           24.15413          -16.83731           24.28263          -16.42879
        2.048000           24.11565          -17.49816           24.25776          -17.09684
        2.052000           24.02395          -18.15553           24.17889          -17.76280
        2.056000           23.87998          -18.80418           24.04670          -18.42135
        2.060000           23.68526          -19.43911           23.86262          -19.06733
        2.064000           23.44197          -20.05558           23.62867          -19.69578
        2.068000           23.15269          -20.64926           23.34733          -20.30219
        2.072000           22.82050          -21.21615           23.02164          -20.88224
        2.076000           22.44889          -21.75263           22.65508          -21.43233
        2.080000           22.04169          -22.25564           22.25147          -21.94893
        2.084000           21.60299          -22.72266           21.81502          -22.42954
        2.088000           21.13711          -23.15170           21.35007          -22.87192
        2.092000           20.64832          -23.54144           20.86102          -23.27450
        2.096000           20.14108          -23.89100           20.35242          -23.63655
        2.100000           19.61966          -24.20013           19.82865          -23.95749
        2.104000           19.08823          -24.46906           19.29402          -24.23755
        2.108000           18.55080          -24.69845           18.75263          -24.47735
        2.112000           18.01087          -24.88951           18.20820          -24.67808
        2.116000           17.47186          -25.04368           17.66414          -24.84111
        2.120000           16.93673          -25.16270           17.12359          -24.96824
        2.124000           16.40814          -25.24857           16.58927          -25.06141
        2.128000           15.88830          -25.30335           16.06355          -25.12284
        2.132000           15.37919          -25.32928           15.54839          -25.15469
        2.136000           14.88225          -25.32861           15.04536          -25.15931
        2.140000           14.39878          -25.30353           14.55581          -25.13887
        2.144000           13.92972          -25.25635           14.08070          -25.09576
        2.148000           13.47578          -25.18909           13.62079          -25.03199
        2.152000           13.03740          -25.10380           13.17660          -24.94979
        2.156000           12.61490          -25.00249           12.74843          -24.85104
        2.160000           12.20828          -24.88687           12.33627          -24.73763
        2.164000           11.81752          -24.75866           11.94018          -24.61119
        2.168000           11.44246          -24.61941           11.55999          -24.47339
        2.172000           11.08281          -24.47058           11.19541          -24.32577
        2.176000           10.73828          -24.31340           10.84611          -24.16955
        2.180000           10.40838          -24.14912           10.51164          -24.00592
        2.184000           10.09269          -23.97877           10.19160          -23.83609
        2.188000           9.790729          -23.80335           9.885475          -23.66099
        2.192000           9.501988          -23.62378           9.592757          -23.48150
        2.196000           9.225949          -23.44074           9.312942          -23.29843
        2.200000           8.962112          -23.25500           9.045508          -23.11254
        2.204000           8.709892          -23.06711           8.789858          -22.92439
        2.208000           8.468802          -22.87768           8.545527          -22.73457
        2.212000           8.238340          -22.68714           8.311968          -22.54357
        2.216000           8.018000          -22.49596           8.088692          -22.35187
        2.220000           7.807315          -22.30451           7.875219          -22.15984
        2.224000           7.605786          -22.11306           7.671034          -21.96773
        2.228000           7.412978          -21.92195           7.475737          -21.77594
        2.232000           7.228464          -21.73141           7.288830          -21.58466
        2.236000           7.051832          -21.54166           7.109941          -21.39410
        2.240000           6.882691          -21.35284           6.938652          -21.20450
        2.244000           6.720678          -21.16517           6.774595          -21.01603
        2.248000           6.565415          -20.97874           6.617425          -20.82876
        2.252000           6.416578          -20.79367           6.466762          -20.64284
        2.256000           6.273851          -20.61004           6.322292          -20.45834
        2.260000           6.136930          -20.42794           6.183725          -20.27539
        2.264000           6.005527          -20.24743           6.050765          -20.09399
        2.268000           5.879384          -20.06860           5.923147          -19.91426
        2.272000           5.758225          -19.89141           5.800586          -19.73622
        2.276000           5.641819          -19.71596           5.682859          -19.55984
        2.280000           5.529939          -19.54224           5.569709          -19.38521
        2.284000           5.422366          -19.37026           5.460956          -19.21235
        2.288000           5.318904          -19.20006           5.356356          -19.04128
        2.292000           5.219340          -19.03158           5.255718          -18.87193
        2.296000           5.123501          -18.86485           5.158869          -18.70433
        2.300000           5.031219          -18.69988           5.065620          -18.53852
        2.304000           4.942329          -18.53663           4.975814          -18.37438
        2.308000           4.856677          -18.37508           4.889297          -18.21196
        2.312000           4.774127          -18.21525           4.805930          -18.05130
        2.316000           4.694527          -18.05708           4.725557          -17.89227
        2.320000           4.617760          -17.90054           4.648053          -17.73492
        2.324000           4.543706          -17.74562           4.573304          -17.57916
        2.328000           4.472247          -17.59229           4.501189          -17.42501
        2.332000           4.403283          -17.44054           4.431608          -17.27248
        2.336000           4.336726          -17.29034           4.364463          -17.12147
        2.340000           4.272453          -17.14163           4.299634          -16.97194
        2.344000           4.210392          -16.99441           4.237047          -16.82396
        2.348000           4.150466          -16.84862           4.176622          -16.67736
        2.352000           4.092584          -16.70429           4.118279          -16.53221
        2.356000           4.036685          -16.56135           4.061932          -16.38855
        2.360000           3.982684          -16.41978           4.007523          -16.24622
        2.364000           3.930516          -16.27954           3.954964          -16.10523
        2.368000           3.880125          -16.14062           3.904208          -15.96554
        2.372000           3.831445          -16.00300           3.855181          -15.82718
        2.376000           3.784419          -15.86665           3.807828          -15.69007
        2.380000           3.738999          -15.73155           3.762110          -15.55424
        2.384000           3.695119          -15.59766           3.717949          -15.41960
        2.388000           3.652740          -15.46495           3.675309          -15.28616
        2.392000           3.611811          -15.33341           3.634138          -15.15391
        2.396000           3.572290          -15.20301           3.594380          -15.02279
        2.400000           3.534135          -15.07374           3.556020          -14.89280
        2.404000           3.497302          -14.94554           3.518996          -14.76389
        2.408000           3.461753          -14.81843           3.483267          -14.63605
        2.412000           3.427454          -14.69233           3.448807          -14.50925
        2.416000           3.394373          -14.56726           3.415579          -14.38350
        2.420000           3.362470          -14.44322           3.383550          -14.25871
        2.424000           3.331725          -14.32015           3.352687          -14.13498
        2.428000           3.302099          -14.19803           3.322960          -14.01214
        2.432000           3.273570          -14.07683           3.294338          -13.89027
        2.436000           3.246109          -13.95658           3.266802          -13.76929
        2.440000           3.219691          -13.83720           3.240324          -13.64922
        2.444000           3.194299          -13.71869           3.214880          -13.53003
        2.448000           3.169906          -13.60106           3.190456          -13.41170
        2.452000           3.146491          -13.48426           3.167013          -13.29420
        2.456000           3.124032          -13.36828           3.144550          -13.17751
        2.460000           3.102512          -13.25312           3.123029          -13.06166
        2.464000           3.081912          -13.13873           3.102446          -12.94656
        2.468000           3.062217          -13.02514           3.082774          -12.83227
        2.472000           3.043406          -12.91230           3.063999          -12.71869
        2.476000           3.025461          -12.80019           3.046101          -12.60592
        2.480000           3.008370          -12.68883           3.029064          -12.49387
        2.484000           2.992111          -12.57817           3.012873          -12.38250
        2.488000           2.976672          -12.46823           2.997518          -12.27187
        2.492000           2.962039          -12.35898           2.982970          -12.16192
        2.496000           2.948188          -12.25042           2.969220          -12.05265
        2.500000           2.935107          -12.14251           2.956254          -11.94402
        2.504000           2.922778          -12.03522           2.944044          -11.83606
        2.508000           2.911188          -11.92861           2.932585          -11.72873
        2.512000           2.900313          -11.82262           2.921848          -11.62202
        2.516000           2.890145          -11.71722           2.911830          -11.51594
        2.520000           2.880659          -11.61242           2.902503          -11.41043
        2.524000           2.871845          -11.50819           2.893857          -11.30546
        2.528000           2.863683          -11.40451           2.885867          -11.20107
        2.532000           2.856162          -11.30136           2.878528          -11.09718
        2.536000           2.849267          -11.19873           2.871816          -10.99383
        2.540000           2.842980          -11.09657           2.865731          -10.89094
        2.544000           2.837298          -10.99485           2.860252          -10.78852
        2.548000           2.832209          -10.89358           2.855376          -10.68651
        2.552000           2.827702          -10.79272           2.851089          -10.58489
        2.556000           2.823777          -10.69223           2.847383          -10.48364
        2.560000           2.820431          -10.59208           2.844270          -10.38274
        2.564000           2.817661          -10.49225           2.841737          -10.28215
        2.568000           2.815472          -10.39270           2.839796          -10.18184
        2.572000           2.813869          -10.29340           2.838446          -10.08175
        2.576000           2.812856          -10.19431           2.837694          -9.981905
        2.580000           2.812446          -10.09545           2.837551          -9.882222
        2.584000           2.812648          -9.996734           2.838036          -9.782713
        2.588000           2.813476          -9.898142           2.839147          -9.683307
        2.592000           2.814944          -9.799685           2.840915          -9.584034
        2.596000           2.817074          -9.701289           2.843353          -9.484800
        2.600000           2.819882          -9.602943           2.846476          -9.385610
        2.604000           2.823396          -9.504636           2.850326          -9.286419
        2.608000           2.827639          -9.406293           2.854912          -9.187220
        2.612000           2.832641          -9.307927           2.860269          -9.087987
        2.616000           2.838430          -9.209508           2.866435          -8.988636
        2.620000           2.845048          -9.110999           2.873440          -8.889197
        2.624000           2.852529          -9.012386           2.881325          -8.789647
        2.628000           2.860918          -8.913632           2.890134          -8.689979
        2.632000           2.870257          -8.814722           2.899911          -8.590108
        2.636000           2.880596          -8.715666           2.910707          -8.490084
        2.640000           2.891989          -8.616410           2.922577          -8.389867
        2.644000           2.904487          -8.516980           2.935574          -8.289425
        2.648000           2.918148          -8.417351           2.949749          -8.188777
        2.652000           2.933033          -8.317509           2.965178          -8.087908
        2.656000           2.949204          -8.217465           2.981912          -7.986839
        2.660000           2.966724          -8.117227           3.000015          -7.885561
        2.664000           2.985658          -8.016784           3.019563          -7.784062
        2.668000           3.006074          -7.916157           3.040618          -7.682391
        2.672000           3.028039          -7.815376           3.063245          -7.580542
        2.676000           3.051634          -7.714449           3.087530          -7.478513
        2.680000           3.076925          -7.613395           3.113542          -7.376345
        2.684000           3.103996          -7.512225           3.141359          -7.274093
        2.688000           3.132919          -7.410992           3.171068          -7.171745
        2.692000           3.163780          -7.309735           3.202744          -7.069352
        2.696000           3.196661          -7.208487           3.236470          -6.966980
        2.700000           3.231657          -7.107286           3.272343          -6.864669
        2.704000           3.268853          -7.006214           3.310469          -6.762457
        2.708000           3.308350          -6.905317           3.350918          -6.660416
        2.712000           3.350237          -6.804696           3.393806          -6.558656
        2.716000           3.394613          -6.704397           3.439220          -6.457237
        2.720000           3.441586          -6.604532           3.487279          -6.356244
        2.724000           3.491256          -6.505205           3.538074          -6.255779
        2.728000           3.543729          -6.406546           3.591712          -6.155981
        2.732000           3.599105          -6.308683           3.648316          -6.057001
        2.736000           3.657490          -6.211763           3.707966          -5.958984
        2.740000           3.718977          -6.115983           3.770765          -5.862132
        2.744000           3.783674          -6.021501           3.836827          -5.766600
        2.748000           3.851657          -5.928544           3.906228          -5.672616
        2.752000           3.923011          -5.837354           3.979048          -5.580427
        2.756000           3.997799          -5.748169           4.055357          -5.490290
        2.760000           4.076061          -5.661299           4.135183          -5.402503
        2.764000           4.157838          -5.577044           4.218570          -5.317379
        2.768000           4.243126          -5.495726           4.305520          -5.235248
        2.772000           4.331896          -5.417713           4.395987          -5.156525
        2.776000           4.424073          -5.343414           4.489918          -5.081529
        2.780000           4.519556          -5.273194           4.587163          -5.010719
        2.784000           4.618164          -5.207514           4.687569          -4.944538
        2.788000           4.719698          -5.146780           4.790915          -4.883405
        2.792000           4.823867          -5.091443           4.896896          -4.827773
        2.796000           4.930308          -5.041955           5.005153          -4.778086
        2.800000           5.038591          -4.998730           5.115222          -4.734760
        2.804000           5.148204          -4.962147           5.226579          -4.698225
        2.808000           5.258537          -4.932586           5.338620          -4.668831
        2.812000           5.368936          -4.910316           5.450645          -4.646844
        2.816000           5.478638          -4.895566           5.561882          -4.632502
        2.820000           5.586817          -4.888456           5.671472          -4.625916
        2.824000           5.692601          -4.889001           5.778534          -4.627088
        2.828000           5.795062          -4.897086           5.882108          -4.635878
        2.832000           5.893286          -4.912458           5.981254          -4.652055
        2.836000           5.986343          -4.934676           6.075050          -4.675102
        2.840000           6.073353          -4.963219           6.162557          -4.704521
        2.844000           6.153490          -4.997344           6.242949          -4.739496
        2.848000           6.226048          -5.036239           6.315520          -4.779222
        2.852000           6.290423          -5.078916           6.379643          -4.822631
        2.856000           6.346183          -5.124311           6.434908          -4.868647
        2.860000           6.393052          -5.171301           6.481020          -4.916102
        2.864000           6.430928          -5.218711           6.517915          -4.963794
        2.868000           6.459886          -5.265401           6.545667          -5.010508
        2.872000           6.480184          -5.310213           6.564570          -5.055104
        2.876000           6.492236          -5.352109           6.575059          -5.096467
        2.880000           6.496598          -5.390120           6.577718          -5.133584
        2.884000           6.493935          -5.423381           6.573284          -5.165620
        2.888000           6.485020          -5.451156           6.562554          -5.191809
        2.892000           6.470668          -5.472843           6.546378          -5.211516
        2.896000           6.451754          -5.487980           6.525673          -5.224293
        2.900000           6.429154          -5.496231           6.501380          -5.229808
        2.904000           6.403731          -5.497366           6.474396          -5.227819
        2.908000           6.376351          -5.491280           6.445626          -5.218264
        2.912000           6.347819          -5.477955           6.415910          -5.201102
        2.916000           6.318897          -5.457464           6.386059          -5.176482
        2.920000           6.290315          -5.429933           6.356812          -5.144524
        2.924000           6.262732          -5.395557           6.328872          -5.105435
        2.928000           6.236758          -5.354564           6.302865          -5.059547
        2.932000           6.212949          -5.307222           6.279368          -5.007052
        2.936000           6.191820          -5.253825           6.258877          -4.948377
        2.940000           6.173828          -5.194670           6.241912          -4.883807
        2.944000           6.159394          -5.130067           6.228840          -4.813671
        2.948000           6.148899          -5.060343           6.220070          -4.738339
        2.952000           6.142699          -4.985810           6.215969          -4.658184
        2.956000           6.141113          -4.906803           6.216824          -4.573515
        2.960000           6.144446          -4.823645           6.222932          -4.484692
        2.964000           6.152978          -4.736626           6.234584          -4.392042
        2.968000           6.166982          -4.646076           6.252017          -4.295883
        2.972000           6.186703          -4.552303           6.275467          -4.196594
        2.976000           6.212399          -4.455627           6.305190          -4.094457
        2.980000           6.244304          -4.356367           6.341398          -3.989775
        2.984000           6.282662          -4.254807           6.384321          -3.882928
        2.988000           6.327704          -4.151332           6.434188          -3.774221
        2.992000           6.379672          -4.046212           6.491223          -3.663936
        2.996000           6.438805          -3.939799           6.555661          -3.552479
        3.000000           6.505343          -3.832446           6.627733          -3.440125
        3.004000           6.579535          -3.724542           6.707688          -3.327291
        3.008000           6.661613          -3.616462           6.795756          -3.214400
        3.012000           6.751849          -3.508635           6.892210          -3.101796
        3.016000           6.850483          -3.401482           6.997295          -2.989916
        3.020000           6.957779          -3.295515           7.111270          -2.879287
        3.024000           7.073969          -3.191237           7.234389          -2.770408
        3.028000           7.199304          -3.089205           7.366914          -2.663800
        3.032000           7.333997          -2.990068           7.509063          -2.560135
        3.036000           7.478286          -2.894446           7.661096          -2.460033
        3.040000           7.632338          -2.803101           7.823206          -2.364227
        3.044000           7.796320          -2.716787           7.995574          -2.273523
        3.048000           7.970333          -2.636376           8.178323          -2.188787
        3.052000           8.154429          -2.562794           8.371539          -2.110918
        3.056000           8.348582          -2.497035           8.575219          -2.040924
        3.060000           8.552734          -2.440123           8.789330          -1.979919
        3.064000           8.766667          -2.393197           9.013694          -1.928986
        3.068000           8.990078          -2.357448           9.248036          -1.889363
        3.072000           9.222526          -2.334087           9.491952          -1.862323
        3.076000           9.463395          -2.324374           9.744860          -1.849125
        3.080000           9.711982          -2.329589           10.00610          -1.851106
        3.084000           9.967312          -2.351021           10.27470          -1.869640
        3.088000           10.22825          -2.389914           10.54959          -1.906005
        3.092000           10.49345          -2.447465           10.82943          -1.961482
        3.096000           10.76136          -2.524747           11.11267          -2.037243
        3.100000           11.03018          -2.622705           11.39753          -2.134289
        3.104000           11.29798          -2.742155           11.68210          -2.253581
        3.108000           11.56259          -2.883623           11.96416          -2.395733
        3.112000           11.82170          -3.047407           12.24137          -2.561181
        3.116000           12.07288          -3.233506           12.51128          -2.750020
        3.120000           12.31360          -3.441576           12.77128          -2.962012
        3.124000           12.54142          -3.670959           13.01882          -3.196653
        3.128000           12.75385          -3.920610           13.25129          -3.453001
        3.132000           12.94852          -4.189126           13.46619          -3.729748
        3.136000           13.12328          -4.474772           13.66123          -4.025241
        3.140000           13.27615          -4.775503           13.83424          -4.337505
        3.144000           13.40548          -5.089010           13.98337          -4.664242
        3.148000           13.50994          -5.412835           14.10708          -5.003026
        3.152000           13.58852          -5.744280           14.20418          -5.351142
        3.156000           13.64058          -6.080593           14.27382          -5.705803
        3.160000           13.66584          -6.418991           14.31553          -6.064113
        3.164000           13.66437          -6.756719           14.32915          -6.423224
        3.168000           13.63658          -7.091054           14.31494          -6.780262
        3.172000           13.58318          -7.419483           14.27342          -7.132584
        3.176000           13.50515          -7.739557           14.20548          -7.477530
        3.180000           13.40372          -8.048988           14.11221          -7.812626
        3.184000           13.28032          -8.345742           13.99493          -8.135609
        3.188000           13.13660          -8.627900           13.85528          -8.444345
        3.192000           12.97432          -8.893905           13.69499          -8.737019
        3.196000           12.79540          -9.142304           13.51598          -9.012001
        3.200000           12.60186          -9.371906           13.32032          -9.267804
        3.204000           12.39579          -9.581791           13.11014          -9.503327
        3.208000           12.17932          -9.771264           12.88770          -9.717662
        3.212000           11.95462          -9.939866           12.65530          -9.910175
        3.216000           11.72377          -10.08741           12.41516          -10.08049
        3.220000           11.48888          -10.21393           12.16954          -10.22854
        3.224000           11.25195          -10.31966           11.92065          -10.35440
        3.228000           11.01490          -10.40502           11.67056          -10.45847
        3.232000           10.77951          -10.47068           11.42127          -10.54127
        3.236000           10.54747          -10.51735           11.17464          -10.60357
        3.240000           10.32022          -10.54597           10.93230          -10.64626
        3.244000           10.09914          -10.55753           10.69578          -10.67039
        3.248000           9.885419          -10.55310           10.46646          -10.67700
        3.252000           9.680097          -10.53380           10.24549          -10.66733
        3.256000           9.484079          -10.50082           10.03395          -10.64259
        3.260000           9.298076          -10.45528           9.832635          -10.60399
        3.264000           9.122729          -10.39834           9.642284          -10.55280
        3.268000           8.958539          -10.33118           9.463499          -10.49024
        3.272000           8.805910          -10.25488           9.296766          -10.41750
        3.276000           8.665154          -10.17055           9.142428          -10.33580
        3.280000           8.536510          -10.07922           9.000799          -10.24624
        3.284000           8.420123          -9.981885           8.872043          -10.14992
        3.288000           8.316122          -9.879531           8.756324          -10.04786
        3.292000           8.224574          -9.773065           8.653738          -9.941123
        3.296000           8.145511          -9.663394           8.564299          -9.830627
        3.300000           8.078933          -9.551377           8.488039          -9.717364
        3.304000           8.024829          -9.437878           8.424943          -9.602220
        3.308000           7.983143          -9.323685           8.374964          -9.486081
        3.312000           7.953821          -9.209637           8.338019          -9.369829
        3.316000           7.936784          -9.096526           8.314040          -9.254333
        3.320000           7.931942          -8.985182           8.302925          -9.140469
        3.324000           7.939175          -8.876405           8.304519          -9.029119
        3.328000           7.958345          -8.771038           8.318697          -8.921136
        3.332000           7.989283          -8.669920           8.345235          -8.817461
        3.336000           8.031783          -8.573950           8.383956          -8.718983
        3.340000           8.085596          -8.483995           8.434555          -8.626664
        3.344000           8.150411          -8.401020           8.496688          -8.541499
        3.348000           8.225846          -8.325966           8.569953          -8.464469
        3.352000           8.311462          -8.259805           8.653884          -8.396621
        3.356000           8.406707          -8.203550           8.747900          -8.338984
        3.360000           8.510921          -8.158219           8.851286          -8.292621
        3.364000           8.623328          -8.124825           8.963205          -8.258595
        3.368000           8.743013          -8.104353           9.082743          -8.237915
        3.372000           8.868944          -8.097766           9.208771          -8.231565
        3.376000           8.999903          -8.105947           9.340005          -8.240511
        3.380000           9.134531          -8.129724           9.475053          -8.265555
        3.384000           9.271313          -8.169785           9.612318          -8.307377
        3.388000           9.408592          -8.226634           9.750069          -8.366545
        3.392000           9.544569          -8.300627           9.886416          -8.443348
        3.396000           9.677382          -8.391878           10.01947          -8.537933
        3.400000           9.805064          -8.500269           10.14715          -8.650143
        3.404000           9.925631          -8.625396           10.26741          -8.779523
        3.408000           10.03712          -8.766567           10.37825          -8.925356
        3.412000           10.13765          -8.922816           10.47768          -9.086585
        3.416000           10.22548          -9.092867           10.56395          -9.261896
        3.420000           10.29903          -9.275260           10.63545          -9.449756
        3.424000           10.35699          -9.468253           10.69084          -9.648304
        3.428000           10.39827          -9.669959           10.72900          -9.855654
        3.432000           10.42213          -9.878382           10.74922          -10.06968
        3.436000           10.42810          -10.09145           10.75103          -10.28823
        3.440000           10.41603          -10.30716           10.73429          -10.50924
        3.444000           10.38604          -10.52351           10.69919          -10.73067
        3.448000           10.33852          -10.73862           10.64616          -10.95057
        3.452000           10.27407          -10.95078           10.57582          -11.16718
        3.456000           10.19346          -11.15842           10.48902          -11.37891
        3.460000           10.09760          -11.36016           10.38670          -11.58439
        3.464000           9.987459          -11.55485           10.26989          -11.78238
        3.468000           9.864096          -11.74142           10.13968          -11.97186
        3.472000           9.728564          -11.91903           9.997185          -12.15191
        3.476000           9.581941          -12.08692           9.843523          -12.32185
        3.480000           9.425295          -12.24446           9.679810          -12.48105
        3.484000           9.259704          -12.39116           9.507130          -12.62898
        3.488000           9.086184          -12.52657           9.326608          -12.76524
        3.492000           8.905810          -12.65035           9.139293          -12.88951
        3.496000           8.719633          -12.76220           8.946311          -13.00150
        3.500000           8.528708          -12.86194           8.748662          -13.10104
        3.504000           8.334113          -12.94945           8.547518          -13.18803
        3.508000           8.136857          -13.02472           8.343878          -13.26248
        3.512000           7.938006          -13.08782           8.138842          -13.32452
        3.516000           7.738578          -13.13890           7.933433          -13.37429
        3.520000           7.539561          -13.17822           7.728652          -13.41208
        3.524000           7.341895          -13.20615           7.525434          -13.43829
        3.528000           7.146476          -13.22312           7.324704          -13.45336
        3.532000           6.954080          -13.22963           7.127215          -13.45783
        3.536000           6.765455          -13.22627           6.933730          -13.45227
        3.540000           6.581253          -13.21365           6.744890          -13.43740
        3.544000           6.402034          -13.19246           6.561264          -13.41384
        3.548000           6.228292          -13.16339           6.383347          -13.38229
        3.552000           6.060383          -13.12712           6.211465          -13.34351
        3.556000           5.898635          -13.08436           6.045975          -13.29819
        3.560000           5.743280          -13.03585           5.887091          -13.24707
        3.564000           5.594484          -12.98221           5.734965          -13.19083
        3.568000           5.452349          -12.92416           5.589702          -13.13016
        3.572000           5.316930          -12.86233           5.451358          -13.06570
        3.576000           5.188199          -12.79731           5.319888          -12.99809
        3.580000           5.066118          -12.72972           5.195239          -12.92791
        3.584000           4.950603          -12.66011           5.077342          -12.85574
        3.588000           4.841531          -12.58900           4.966070          -12.78209
        3.592000           4.738753          -12.51690           4.861250          -12.70754
        3.596000           4.642099          -12.44430           4.762707          -12.63253
        3.600000           4.551350          -12.37165           4.670235          -12.55749
        3.604000           4.466281          -12.29935           4.583587          -12.48289
        3.608000           4.386652          -12.22782           4.502509          -12.40918
        3.612000           4.312184          -12.15745           4.426743          -12.33667
        3.616000           4.242590          -12.08860           4.355964          -12.26579
        3.620000           4.177537          -12.02158           4.289851          -12.19683
        3.624000           4.116686          -11.95670           4.228052          -12.13014
        3.628000           4.059670          -11.89426           4.170191          -12.06599
        3.632000           4.006094          -11.83447           4.115852          -12.00460
        3.636000           3.955541          -11.77757           4.064616          -11.94624
        3.640000           3.907575          -11.72370           4.016033          -11.89104
        3.644000           3.861733          -11.67298           3.969624          -11.83912
        3.648000           3.817545          -11.62548           3.924906          -11.79057
        3.652000           3.774534          -11.58120           3.881387          -11.74538
        3.656000           3.732222          -11.54009           3.838573          -11.70349
        3.660000           3.690142          -11.50204           3.795969          -11.66482
        3.664000           3.647851          -11.46686           3.753137          -11.62915
        3.668000           3.604928          -11.43430           3.709618          -11.59625
        3.672000           3.561007          -11.40406           3.665041          -11.56577
        3.676000           3.515771          -11.37582           3.619067          -11.53737
        3.680000           3.468966          -11.34916           3.571443          -11.51068
        3.684000           3.420415          -11.32367           3.521965          -11.48523
        3.688000           3.369995          -11.29893           3.470512          -11.46059
        3.692000           3.317679          -11.27451           3.417051          -11.43631
        3.696000           3.263500          -11.24997           3.361612          -11.41191
        3.700000           3.207560          -11.22495           3.304300          -11.38704
        3.704000           3.150019          -11.19908           3.245273          -11.36130
        3.708000           3.091089          -11.17206           3.184757          -11.33441
        3.712000           3.031005          -11.14362           3.122998          -11.30603
        3.716000           2.970039          -11.11359           3.060265          -11.27599
        3.720000           2.908475          -11.08180           2.996866          -11.24413
        3.724000           2.846598          -11.04819           2.933096          -11.21036
        3.728000           2.784690          -11.01268           2.869251          -11.17464
        3.732000           2.723006          -10.97530           2.805601          -11.13693
        3.736000           2.661798          -10.93608           2.742404          -11.09731
        3.740000           2.601286          -10.89509           2.679896          -11.05583
        3.744000           2.541665          -10.85243           2.618283          -11.01261
        3.748000           2.483106          -10.80823           2.557747          -10.96776
        3.752000           2.425753          -10.76260           2.498441          -10.92141
        3.756000           2.369709          -10.71568           2.440472          -10.87369
        3.760000           2.315071          -10.66761           2.383939          -10.82475
        3.764000           2.261906          -10.61854           2.328924          -10.77475
        3.768000           2.210261          -10.56860           2.275472          -10.72384
        3.772000           2.160163          -10.51793           2.223616          -10.67216
        3.776000           2.111631          -10.46665           2.173378          -10.61979
        3.780000           2.064655          -10.41486           2.124742          -10.56692
        3.784000           2.019228          -10.36271           2.077709          -10.51363
        3.788000           1.975329          -10.31028           2.032258          -10.46003
        3.792000           1.932931          -10.25766           1.988359          -10.40625
        3.796000           1.892002          -10.20495           1.945982          -10.35236
        3.800000           1.852495          -10.15222           1.905078          -10.29840
        3.804000           1.814373          -10.09953           1.865608          -10.24449
        3.808000           1.777593          -10.04695           1.827528          -10.19068
        3.812000           1.742106          -9.994537           1.790789          -10.13705
        3.816000           1.707866          -9.942327           1.755342          -10.08358
        3.820000           1.674831          -9.890383           1.721146          -10.03040
        3.824000           1.642945          -9.838719           1.688139          -9.977498
        3.828000           1.612166          -9.787378           1.656280          -9.924938
        3.832000           1.582450          -9.736389           1.625526          -9.872714
        3.836000           1.553752          -9.685771           1.595829          -9.820879
        3.840000           1.526027          -9.635546           1.567135          -9.769469
        3.844000           1.499240          -9.585731           1.539419          -9.718448
        3.848000           1.473342          -9.536337           1.512623          -9.667841
        3.852000           1.448299          -9.487379           1.486714          -9.617712
        3.856000           1.424074          -9.438862           1.461655          -9.568015
        3.860000           1.400631          -9.390790           1.437406          -9.518788
        3.864000           1.377938          -9.343183           1.413935          -9.470050
        3.868000           1.355958          -9.296023           1.391205          -9.421767
        3.872000           1.334663          -9.249333           1.369182          -9.373939
        3.876000           1.314025          -9.203095           1.347841          -9.326601
        3.880000           1.294014          -9.157316           1.327151          -9.279725
        3.884000           1.274603          -9.112010           1.307082          -9.233327
        3.888000           1.255770          -9.067159           1.287614          -9.187406
        3.892000           1.237485          -9.022752           1.268716          -9.141973
        3.896000           1.219730          -8.978804           1.250363          -9.096978
        3.900000           1.202480          -8.935308           1.232536          -9.052426
        3.904000           1.185717          -8.892256           1.215214          -9.008380
        3.908000           1.169420          -8.849648           1.198375          -8.964772
        3.912000           1.153569          -8.807469           1.181998          -8.921611
        3.916000           1.138148          -8.765722           1.166063          -8.878876
        3.920000           1.123138          -8.724397           1.150559          -8.836600
        3.924000           1.108524          -8.683496           1.135463          -8.794750
        3.928000           1.094292          -8.643010           1.120762          -8.753324
        3.932000           1.080427          -8.602931           1.106443          -8.712335
        3.936000           1.066913          -8.563261           1.092486          -8.671732
        3.940000           1.053737          -8.523979           1.078882          -8.631557
        3.944000           1.040888          -8.485093           1.065614          -8.591782
        3.948000           1.028352          -8.446594           1.052671          -8.552412
        3.952000           1.016121          -8.408475           1.040045          -8.513414
        3.956000           1.004181          -8.370729           1.027718          -8.474824
        3.960000           0.992522          -8.333355           1.015684          -8.436610
        3.964000           0.981135          -8.296336           1.003931          -8.398769
        3.968000           0.970008          -8.259680           0.992448          -8.361288
        3.972000           0.959136          -8.223375           0.981228          -8.324184
        3.976000           0.948508          -8.187422           0.970260          -8.287422
        3.980000           0.938115          -8.151802           0.959536          -8.251008
        3.984000           0.927950          -8.116514           0.949050          -8.214950
        3.988000           0.918006          -8.081557           0.938790          -8.179222
        3.992000           0.908275          -8.046928           0.928750          -8.143836
        3.996000           0.898750          -8.012622           0.918926          -8.108784
        4.000000           0.889425          -7.978631           0.909309          -8.074046
# 
# 10/28/2023 at 22:56 yambo @ unimi-XPS-8930 [start]
# 10/28/2023 at 22:56                        [end]
#  
# Timing   [Min/Max/Average]: 08s/08s/08s
#
# .-Input file  yambo.in
# | optics                           # [R] Linear Response optical properties
# | bss                              # [R] BSE solver
# | bse                              # [R][BSE] Bethe Salpeter Equation.
# | tddft                            # [R][K] Use TDDFT kernel
# | ElecTemp= 0.025861         eV    # Electronic Temperature
# | BoseTemp= 0.025861         eV    # Bosonic Temperature
# | FFTGvecs=  603             RL    # [FFT] Plane-waves
# | BS_nCPU_LinAlg_INV= 1            # [PARALLEL] CPUs for Linear Algebra (if -1 it is automatically set)
# | BS_nCPU_LinAlg_DIAGO= 1          # [PARALLEL] CPUs for Linear Algebra (if -1 it is automatically set)
# | X_Threads= 1                     # [OPENMP/X] Number of threads for response functions
# | DIP_Threads= 1                   # [OPENMP/X] Number of threads for dipoles
# | K_Threads= 1                     # [OPENMP/BSK] Number of threads for response functions
# | BSKmod= "ALDA"                   # [BSE] IP/Hartree/HF/ALDA/SEX/BSfxc
# | BSEmod= "retarded"               # [BSE] resonant/retarded/coupling
# | BSSmod= "d"                      # [BSS] (h)aydock/(d)iagonalization/(s)lepc/(i)nversion/(t)ddft`
# | DipComputed= "R V P Spin"        # [DIP] [default R P V; extra P2 Spin Orb]
# | BSENGexx= 1157             RL    # [BSK] Exchange components
# | BSENGfxc= 1157             RL    # [BSK] Fxc components
# | % BSEQptR
# |  1 | 1 |                             # [BSK] Transferred momenta range
# | %
# | % BSEBands
# |   5 | 10 |                           # [BSK] Bands range
# | %
# | % BEnRange
# | -2.000000 | 4.000000 |         eV    # [BSS] Energy range
# | %
# | % BDmRange
# |  0.100000 | 0.100000 |         eV    # [BSS] Damping range
# | %
# | BEnSteps= 1501                   # [BSS] Energy steps
# | % BLongDir
# |  0.000000 | 1.000000 | 0.000000 |        # [BSS] [cc] Electric Field versor
# | %
# | BSEprop= " abs jdos magn"        # [BSS] Can be any among abs/jdos/kerr/asymm/anHAll/magn/dich/photolum/esrt
# | BSEdips= "none"                  # [BSS] Can be "trace/none" or "xy/xz/yz" to define off-diagonal rotation plane
# | #WRbsWF                        # [BSS] Write to disk excitonic the WFs
