#                                                           
#                                                           
# Y88b    /   e           e    e      888~~\    ,88~-_      
#  Y88b  /   d8b         d8b  d8b     888   |  d888   \     
#   Y88b/   /Y88b       d888bdY88b    888 _/  88888    |    
#    Y8Y   /  Y88b     / Y88Y Y888b   888  \  88888    |    
#     Y   /____Y88b   /   YY   Y888b  888   |  Y888   /     
#    /   /      Y88b /          Y888b 888__/    `88_-~      
#                                                           
#                                                           
#       Version 4.2.0 Revision 14456 Hash cc1a9b3           
#                  MPI+SLK+OpenMP Build                     
#               http://www.yambo-code.org                   
#
# EELS @ Q(1)  [q->0 direction]:0.1000E-4  0.000     0.000   
#
#
# - Energies      are Teter 93(XC)
# - Wavefunctions are Teter 93(XC)
#
# - The Green`s function is Retarded -
# - Using the Length Gauge -
# - [r,Vnl] *is* included -
#
#   BSK|Identifier              :5728
#      |Dimension               :9
#      |Bands                   :1 - 10
#      |Exchange           [res]: yes
#      |Correlation        [res]: no
#      |Kernel`s coupling       : yes
#      |Exchange           [cpl]: yes
#      |Correlation        [cpl]: no
#      |W interaction is bare   : no
#      |ALDA kernel in R-space  : yes
#      |RL vectors    [exchange]:39127
#      |E/h energy range    [ev]:-1.000000 - -1.000000
#      |Coupling range     [o/o]: 100.0000 -  100.0000
#
#    E/ev[1]      EEL-Im[2]    EEL-Re[3]    EELo-Im[4]   EELo-Re[5]
#
    0.00        0.168E-10    -.991        -0.00        -.984    
   0.2002E-1    0.3448E-6    -.9905       0.9722E-6    -.9840   
   0.4004E-1    0.6895E-6    -.9905       0.1944E-5    -.9840   
   0.6006E-1    0.1034E-5    -.9905       0.2917E-5    -.9840   
   0.8008E-1    0.1379E-5    -.9905       0.3889E-5    -.9840   
   0.1001       0.1724E-5    -.9905       0.4862E-5    -.9840   
   0.1201       0.2069E-5    -.9905       0.5835E-5    -.9840   
   0.1401       0.2414E-5    -.9905       0.6809E-5    -.9840   
   0.1602       0.2759E-5    -.9905       0.7783E-5    -.9840   
   0.1802       0.3105E-5    -.9905       0.8758E-5    -.9840   
   0.2002       0.3450E-5    -.9905       0.9733E-5    -.9840   
   0.2202       0.3796E-5    -.9905       0.1071E-4    -.9840   
   0.2402       0.4142E-5    -.9905       0.1169E-4    -.9840   
   0.2603       0.4487E-5    -.9905       0.1266E-4    -.9840   
   0.2803       0.4834E-5    -.9905       0.1364E-4    -.9840   
   0.3003       0.5180E-5    -.9905       0.1462E-4    -.9840   
   0.3203       0.5527E-5    -.9905       0.1560E-4    -.9840   
   0.3403       0.5873E-5    -.9905       0.1658E-4    -.9840   
   0.3604       0.6221E-5    -.9905       0.1757E-4    -.9840   
   0.3804       0.6568E-5    -.9905       0.1855E-4    -.9840   
   0.4004       0.6916E-5    -.9905       0.1954E-4    -.9840   
   0.4204       0.7264E-5    -.9905       0.2053E-4    -.9840   
   0.4404       0.7612E-5    -.9905       0.2151E-4    -.9840   
   0.4605       0.7961E-5    -.9905       0.2250E-4    -.9840   
   0.4805       0.8310E-5    -.9905       0.2350E-4    -.9840   
   0.5005       0.8659E-5    -.9905       0.2449E-4    -.9840   
   0.5205       0.9009E-5    -.9905       0.2549E-4    -.9840   
   0.5405       0.9359E-5    -.9905       0.2648E-4    -.9840   
   0.5606       0.9709E-5    -.9905       0.2748E-4    -.9840   
   0.5806       0.1006E-4    -.9905       0.2848E-4    -.9840   
   0.6006       0.1041E-4    -.9905       0.2949E-4    -.9840   
   0.6206       0.1076E-4    -.9905       0.3049E-4    -.9839   
   0.6406       0.1112E-4    -.9905       0.3150E-4    -.9839   
   0.6607       0.1147E-4    -.9905       0.3251E-4    -.9839   
   0.6807       0.1182E-4    -.9905       0.3352E-4    -.9839   
   0.7007       0.1218E-4    -.9905       0.3454E-4    -.9839   
   0.7207       0.1253E-4    -.9905       0.3556E-4    -.9839   
   0.7407       0.1289E-4    -.9905       0.3658E-4    -.9839   
   0.7608       0.1324E-4    -.9905       0.3760E-4    -.9839   
   0.7808       0.1360E-4    -.9905       0.3863E-4    -.9839   
   0.8008       0.1395E-4    -.9905       0.3966E-4    -.9839   
   0.8208       0.1431E-4    -.9905       0.4069E-4    -.9839   
   0.8408       0.1467E-4    -.9905       0.4172E-4    -.9839   
   0.8609       0.1503E-4    -.9905       0.4276E-4    -.9839   
   0.8809       0.1539E-4    -.9905       0.4380E-4    -.9839   
   0.9009       0.1575E-4    -.9905       0.4485E-4    -.9838   
   0.9209       0.1611E-4    -.9905       0.4590E-4    -.9838   
   0.9409       0.1647E-4    -.9905       0.4695E-4    -.9838   
   0.9610       0.1683E-4    -.9905       0.4800E-4    -.9838   
   0.9810       0.1720E-4    -.9905       0.4906E-4    -.9838   
    1.001       0.1756E-4    -.9905       0.5013E-4    -.9838   
    1.021       0.1793E-4    -.9904       0.5119E-4    -.9838   
    1.041       0.1829E-4    -.9904       0.5226E-4    -.9838   
    1.061       0.1866E-4    -.9904       0.5334E-4    -.9838   
    1.081       0.1903E-4    -.9904       0.5442E-4    -.9838   
    1.101       0.1939E-4    -.9904       0.5550E-4    -.9837   
    1.121       0.1976E-4    -.9904       0.5659E-4    -.9837   
    1.141       0.2013E-4    -.9904       0.5768E-4    -.9837   
    1.161       0.2050E-4    -.9904       0.5878E-4    -.9837   
    1.181       0.2087E-4    -.9904       0.5988E-4    -.9837   
    1.201       0.2125E-4    -.9904       0.6098E-4    -.9837   
    1.221       0.2162E-4    -.9904       0.6209E-4    -.9837   
    1.241       0.2200E-4    -.9904       0.6321E-4    -.9837   
    1.261       0.2237E-4    -.9904       0.6433E-4    -.9836   
    1.281       0.2275E-4    -.9904       0.6545E-4    -.9836   
    1.301       0.2313E-4    -.9904       0.6658E-4    -.9836   
    1.321       0.2351E-4    -.9904       0.6772E-4    -.9836   
    1.341       0.2389E-4    -.9904       0.6886E-4    -.9836   
    1.361       0.2427E-4    -.9904       0.7001E-4    -.9836   
    1.381       0.2465E-4    -.9904       0.7116E-4    -.9836   
    1.401       0.2503E-4    -.9904       0.7232E-4    -.9836   
    1.421       0.2542E-4    -.9904       0.7348E-4    -.9835   
    1.441       0.2580E-4    -.9904       0.7465E-4    -.9835   
    1.461       0.2619E-4    -.9904       0.7582E-4    -.9835   
    1.481       0.2658E-4    -.9903       0.7701E-4    -.9835   
    1.502       0.2697E-4    -.9903       0.7819E-4    -.9835   
    1.522       0.2736E-4    -.9903       0.7939E-4    -.9835   
    1.542       0.2775E-4    -.9903       0.8059E-4    -.9834   
    1.562       0.2814E-4    -.9903       0.8180E-4    -.9834   
    1.582       0.2854E-4    -.9903       0.8301E-4    -.9834   
    1.602       0.2893E-4    -.9903       0.8423E-4    -.9834   
    1.622       0.2933E-4    -.9903       0.8546E-4    -.9834   
    1.642       0.2973E-4    -.9903       0.8669E-4    -.9834   
    1.662       0.3013E-4    -.9903       0.8794E-4    -.9833   
    1.682       0.3053E-4    -.9903       0.8919E-4    -.9833   
    1.702       0.3094E-4    -.9903       0.9044E-4    -.9833   
    1.722       0.3134E-4    -.9903       0.9171E-4    -.9833   
    1.742       0.3175E-4    -.9903       0.9298E-4    -.9833   
    1.762       0.3216E-4    -.9903       0.9426E-4    -.9833   
    1.782       0.3256E-4    -.9903       0.9555E-4    -.9832   
    1.802       0.3298E-4    -.9903       0.9684E-4    -.9832   
    1.822       0.3339E-4    -.9902       0.9815E-4    -.9832   
    1.842       0.3380E-4    -.9902       0.9946E-4    -.9832   
    1.862       0.3422E-4    -.9902       0.1008E-3    -.9832   
    1.882       0.3464E-4    -.9902       0.1021E-3    -.9831   
    1.902       0.3505E-4    -.9902       0.1035E-3    -.9831   
    1.922       0.3548E-4    -.9902       0.1048E-3    -.9831   
    1.942       0.3590E-4    -.9902       0.1062E-3    -.9831   
    1.962       0.3632E-4    -.9902       0.1075E-3    -.9831   
    1.982       0.3675E-4    -.9902       0.1089E-3    -.9830   
    2.002       0.3718E-4    -.9902       0.1103E-3    -.9830   
    2.022       0.3761E-4    -.9902       0.1117E-3    -.9830   
    2.042       0.3804E-4    -.9902       0.1131E-3    -.9830   
    2.062       0.3847E-4    -.9902       0.1145E-3    -.9829   
    2.082       0.3891E-4    -.9902       0.1159E-3    -.9829   
    2.102       0.3935E-4    -.9901       0.1174E-3    -.9829   
    2.122       0.3979E-4    -.9901       0.1188E-3    -.9829   
    2.142       0.4023E-4    -.9901       0.1203E-3    -.9828   
    2.162       0.4067E-4    -.9901       0.1217E-3    -.9828   
    2.182       0.4112E-4    -.9901       0.1232E-3    -.9828   
    2.202       0.4156E-4    -.9901       0.1247E-3    -.9828   
    2.222       0.4201E-4    -.9901       0.1262E-3    -.9827   
    2.242       0.4247E-4    -.9901       0.1277E-3    -.9827   
    2.262       0.4292E-4    -.9901       0.1292E-3    -.9827   
    2.282       0.4338E-4    -.9901       0.1308E-3    -.9827   
    2.302       0.4384E-4    -.9901       0.1323E-3    -.9826   
    2.322       0.4430E-4    -.9901       0.1339E-3    -.9826   
    2.342       0.4476E-4    -.9900       0.1355E-3    -.9826   
    2.362       0.4522E-4    -.9900       0.1370E-3    -.9826   
    2.382       0.4569E-4    -.9900       0.1387E-3    -.9825   
    2.402       0.4616E-4    -.9900       0.1403E-3    -.9825   
    2.422       0.4664E-4    -.9900       0.1419E-3    -.9825   
    2.442       0.4711E-4    -.9900       0.1435E-3    -.9825   
    2.462       0.4759E-4    -.9900       0.1452E-3    -.9824   
    2.482       0.4807E-4    -.9900       0.1469E-3    -.9824   
    2.503       0.4855E-4    -.9900       0.1485E-3    -.9824   
    2.523       0.4904E-4    -.9900       0.1502E-3    -.9823   
    2.543       0.4952E-4    -.9899       0.1519E-3    -.9823   
    2.563       0.5001E-4    -.9899       0.1537E-3    -.9823   
    2.583       0.5051E-4    -.9899       0.1554E-3    -.9822   
    2.603       0.5100E-4    -.9899       0.1572E-3    -.9822   
    2.623       0.5150E-4    -.9899       0.1590E-3    -.9822   
    2.643       0.5200E-4    -.9899       0.1607E-3    -.9821   
    2.663       0.5251E-4    -.9899       0.1625E-3    -.9821   
    2.683       0.5302E-4    -.9899       0.1644E-3    -.9821   
    2.703       0.5353E-4    -.9899       0.1662E-3    -.9820   
    2.723       0.5404E-4    -.9899       0.1681E-3    -.9820   
    2.743       0.5455E-4    -.9898       0.1699E-3    -.9820   
    2.763       0.5507E-4    -.9898       0.1718E-3    -.9819   
    2.783       0.5560E-4    -.9898       0.1737E-3    -.9819   
    2.803       0.5612E-4    -.9898       0.1757E-3    -.9819   
    2.823       0.5665E-4    -.9898       0.1776E-3    -.9818   
    2.843       0.5718E-4    -.9898       0.1796E-3    -.9818   
    2.863       0.5772E-4    -.9898       0.1816E-3    -.9818   
    2.883       0.5825E-4    -.9898       0.1836E-3    -.9817   
    2.903       0.5879E-4    -.9898       0.1856E-3    -.9817   
    2.923       0.5934E-4    -.9897       0.1877E-3    -.9817   
    2.943       0.5989E-4    -.9897       0.1897E-3    -.9816   
    2.963       0.6044E-4    -.9897       0.1918E-3    -.9816   
    2.983       0.6099E-4    -.9897       0.1939E-3    -.9815   
    3.003       0.6155E-4    -.9897       0.1960E-3    -.9815   
    3.023       0.6211E-4    -.9897       0.1982E-3    -.9815   
    3.043       0.6268E-4    -.9897       0.2004E-3    -.9814   
    3.063       0.6325E-4    -.9897       0.2026E-3    -.9814   
    3.083       0.6382E-4    -.9896       0.2048E-3    -.9813   
    3.103       0.6440E-4    -.9896       0.2070E-3    -.9813   
    3.123       0.6498E-4    -.9896       0.2093E-3    -.9813   
    3.143       0.6556E-4    -.9896       0.2116E-3    -.9812   
    3.163       0.6615E-4    -.9896       0.2139E-3    -.9812   
    3.183       0.6674E-4    -.9896       0.2163E-3    -.9811   
    3.203       0.6734E-4    -.9896       0.2186E-3    -.9811   
    3.223       0.6794E-4    -.9896       0.2210E-3    -.9810   
    3.243       0.6854E-4    -.9895       0.2234E-3    -.9810   
    3.263       0.6915E-4    -.9895       0.2259E-3    -.9810   
    3.283       0.6976E-4    -.9895       0.2284E-3    -.9809   
    3.303       0.7038E-4    -.9895       0.2309E-3    -.9809   
    3.323       0.7100E-4    -.9895       0.2334E-3    -.9808   
    3.343       0.7162E-4    -.9895       0.2360E-3    -.9808   
    3.363       0.7225E-4    -.9895       0.2385E-3    -.9807   
    3.383       0.7289E-4    -.9894       0.2412E-3    -.9807   
    3.403       0.7352E-4    -.9894       0.2438E-3    -.9806   
    3.423       0.7417E-4    -.9894       0.2465E-3    -.9806   
    3.443       0.7482E-4    -.9894       0.2492E-3    -.9805   
    3.463       0.7547E-4    -.9894       0.2520E-3    -.9805   
    3.483       0.7613E-4    -.9894       0.2547E-3    -.9804   
    3.504       0.7679E-4    -.9893       0.2576E-3    -.9804   
    3.524       0.7745E-4    -.9893       0.2604E-3    -.9803   
    3.544       0.7813E-4    -.9893       0.2633E-3    -.9803   
    3.564       0.7880E-4    -.9893       0.2662E-3    -.9802   
    3.584       0.7949E-4    -.9893       0.2691E-3    -.9802   
    3.604       0.8017E-4    -.9893       0.2721E-3    -.9801   
    3.624       0.8086E-4    -.9893       0.2752E-3    -.9801   
    3.644       0.8156E-4    -.9892       0.2782E-3    -.9800   
    3.664       0.8227E-4    -.9892       0.2813E-3    -.9799   
    3.684       0.8297E-4    -.9892       0.2845E-3    -.9799   
    3.704       0.8369E-4    -.9892       0.2876E-3    -.9798   
    3.724       0.8441E-4    -.9892       0.2909E-3    -.9798   
    3.744       0.8513E-4    -.9892       0.2941E-3    -.9797   
    3.764       0.8586E-4    -.9891       0.2974E-3    -.9797   
    3.784       0.8660E-4    -.9891       0.3008E-3    -.9796   
    3.804       0.8734E-4    -.9891       0.3042E-3    -.9795   
    3.824       0.8809E-4    -.9891       0.3076E-3    -.9795   
    3.844       0.8884E-4    -.9891       0.3111E-3    -.9794   
    3.864       0.8961E-4    -.9890       0.3146E-3    -.9794   
    3.884       0.9037E-4    -.9890       0.3182E-3    -.9793   
    3.904       0.9114E-4    -.9890       0.3218E-3    -.9792   
    3.924       0.9192E-4    -.9890       0.3255E-3    -.9792   
    3.944       0.9271E-4    -.9890       0.3293E-3    -.9791   
    3.964       0.9350E-4    -.9890       0.3330E-3    -.9790   
    3.984       0.9430E-4    -.9889       0.3369E-3    -.9790   
    4.004       0.9511E-4    -.9889       0.3407E-3    -.9789   
    4.024       0.9592E-4    -.9889       0.3447E-3    -.9788   
    4.044       0.9674E-4    -.9889       0.3487E-3    -.9788   
    4.064       0.9756E-4    -.9889       0.3527E-3    -.9787   
    4.084       0.9840E-4    -.9888       0.3568E-3    -.9786   
    4.104       0.9924E-4    -.9888       0.3610E-3    -.9785   
    4.124       0.1001E-3    -.9888       0.3652E-3    -.9785   
    4.144       0.1009E-3    -.9888       0.3695E-3    -.9784   
    4.164       0.1018E-3    -.9888       0.3739E-3    -.9783   
    4.184       0.1027E-3    -.9887       0.3783E-3    -.9782   
    4.204       0.1036E-3    -.9887       0.3828E-3    -.9782   
    4.224       0.1044E-3    -.9887       0.3873E-3    -.9781   
    4.244       0.1053E-3    -.9887       0.3920E-3    -.9780   
    4.264       0.1062E-3    -.9887       0.3967E-3    -.9779   
    4.284       0.1071E-3    -.9886       0.4014E-3    -.9779   
    4.304       0.1081E-3    -.9886       0.4063E-3    -.9778   
    4.324       0.1090E-3    -.9886       0.4112E-3    -.9777   
    4.344       0.1099E-3    -.9886       0.4161E-3    -.9776   
    4.364       0.1109E-3    -.9885       0.4212E-3    -.9775   
    4.384       0.1118E-3    -.9885       0.4264E-3    -.9774   
    4.404       0.1128E-3    -.9885       0.4316E-3    -.9774   
    4.424       0.1137E-3    -.9885       0.4369E-3    -.9773   
    4.444       0.1147E-3    -.9885       0.4423E-3    -.9772   
    4.464       0.1157E-3    -.9884       0.4478E-3    -.9771   
    4.484       0.1167E-3    -.9884       0.4533E-3    -.9770   
    4.505       0.1177E-3    -.9884       0.4590E-3    -.9769   
    4.525       0.1187E-3    -.9884       0.4647E-3    -.9768   
    4.545       0.1198E-3    -.9883       0.4706E-3    -.9767   
    4.565       0.1208E-3    -.9883       0.4765E-3    -.9766   
    4.585       0.1218E-3    -.9883       0.4826E-3    -.9765   
    4.605       0.1229E-3    -.9883       0.4887E-3    -.9764   
    4.625       0.1240E-3    -.9882       0.4949E-3    -.9763   
    4.645       0.1250E-3    -.9882       0.5013E-3    -.9762   
    4.665       0.1261E-3    -.9882       0.5078E-3    -.9761   
    4.685       0.1272E-3    -.9882       0.5143E-3    -.9760   
    4.705       0.1283E-3    -.9881       0.5210E-3    -.9759   
    4.725       0.1295E-3    -.9881       0.5278E-3    -.9758   
    4.745       0.1306E-3    -.9881       0.5348E-3    -.9757   
    4.765       0.1317E-3    -.9881       0.5418E-3    -.9756   
    4.785       0.1329E-3    -.9880       0.5490E-3    -.9755   
    4.805       0.1341E-3    -.9880       0.5563E-3    -.9754   
    4.825       0.1352E-3    -.9880       0.5637E-3    -.9753   
    4.845       0.1364E-3    -.9880       0.5713E-3    -.9752   
    4.865       0.1376E-3    -.9879       0.5790E-3    -.9751   
    4.885       0.1389E-3    -.9879       0.5868E-3    -.9749   
    4.905       0.1401E-3    -.9879       0.5948E-3    -.9748   
    4.925       0.1413E-3    -.9878       0.6030E-3    -.9747   
    4.945       0.1426E-3    -.9878       0.6113E-3    -.9746   
    4.965       0.1439E-3    -.9878       0.6197E-3    -.9745   
    4.985       0.1451E-3    -.9878       0.6284E-3    -.9743   
    5.005       0.1464E-3    -.9877       0.6371E-3    -.9742   
    5.025       0.1477E-3    -.9877       0.6461E-3    -.9741   
    5.045       0.1491E-3    -.9877       0.6552E-3    -.9740   
    5.065       0.1504E-3    -.9876       0.6645E-3    -.9738   
    5.085       0.1518E-3    -.9876       0.6740E-3    -.9737   
    5.105       0.1531E-3    -.9876       0.6837E-3    -.9736   
    5.125       0.1545E-3    -.9876       0.6936E-3    -.9734   
    5.145       0.1559E-3    -.9875       0.7037E-3    -.9733   
    5.165       0.1573E-3    -.9875       0.7139E-3    -.9731   
    5.185       0.1588E-3    -.9875       0.7244E-3    -.9730   
    5.205       0.1602E-3    -.9874       0.7351E-3    -.9728   
    5.225       0.1617E-3    -.9874       0.7461E-3    -.9727   
    5.245       0.1632E-3    -.9874       0.7572E-3    -.9725   
    5.265       0.1647E-3    -.9873       0.7686E-3    -.9724   
    5.285       0.1662E-3    -.9873       0.7803E-3    -.9722   
    5.305       0.1677E-3    -.9873       0.7921E-3    -.9721   
    5.325       0.1692E-3    -.9872       0.8043E-3    -.9719   
    5.345       0.1708E-3    -.9872       0.8167E-3    -.9718   
    5.365       0.1724E-3    -.9872       0.8294E-3    -.9716   
    5.385       0.1740E-3    -.9871       0.8423E-3    -.9714   
    5.405       0.1756E-3    -.9871       0.8556E-3    -.9713   
    5.425       0.1773E-3    -.9871       0.8691E-3    -.9711   
    5.445       0.1789E-3    -.9870       0.8830E-3    -.9709   
    5.465       0.1806E-3    -.9870       0.8971E-3    -.9707   
    5.485       0.1823E-3    -.9869       0.9116E-3    -.9706   
    5.506       0.1841E-3    -.9869       0.9264E-3    -.9704   
    5.526       0.1858E-3    -.9869       0.9416E-3    -.9702   
    5.546       0.1876E-3    -.9868       0.9571E-3    -.9700   
    5.566       0.1894E-3    -.9868       0.9730E-3    -.9698   
    5.586       0.1912E-3    -.9868       0.9893E-3    -.9696   
    5.606       0.1930E-3    -.9867       0.1006E-2    -.9694   
    5.626       0.1949E-3    -.9867       0.1023E-2    -.9692   
    5.646       0.1968E-3    -.9866       0.1041E-2    -.9690   
    5.666       0.1987E-3    -.9866       0.1058E-2    -.9688   
    5.686       0.2006E-3    -.9866       0.1077E-2    -.9686   
    5.706       0.2026E-3    -.9865       0.1096E-2    -.9684   
    5.726       0.2045E-3    -.9865       0.1115E-2    -.9681   
    5.746       0.2065E-3    -.9864       0.1135E-2    -.9679   
    5.766       0.2086E-3    -.9864       0.1155E-2    -.9677   
    5.786       0.2106E-3    -.9864       0.1176E-2    -.9675   
    5.806       0.2127E-3    -.9863       0.1197E-2    -.9672   
    5.826       0.2148E-3    -.9863       0.1219E-2    -.9670   
    5.846       0.2170E-3    -.9862       0.1242E-2    -.9667   
    5.866       0.2192E-3    -.9862       0.1265E-2    -.9665   
    5.886       0.2214E-3    -.9861       0.1289E-2    -.9662   
    5.906       0.2236E-3    -.9861       0.1313E-2    -.9660   
    5.926       0.2259E-3    -.9861       0.1339E-2    -.9657   
    5.946       0.2282E-3    -.9860       0.1364E-2    -.9654   
    5.966       0.2305E-3    -.9860       0.1391E-2    -.9652   
    5.986       0.2328E-3    -.9859       0.1418E-2    -.9649   
    6.006       0.2352E-3    -.9859       0.1446E-2    -.9646   
    6.026       0.2377E-3    -.9858       0.1475E-2    -.9643   
    6.046       0.2401E-3    -.9858       0.1505E-2    -.9640   
    6.066       0.2426E-3    -.9857       0.1536E-2    -.9637   
    6.086       0.2451E-3    -.9857       0.1567E-2    -.9634   
    6.106       0.2477E-3    -.9856       0.1600E-2    -.9631   
    6.126       0.2503E-3    -.9856       0.1634E-2    -.9628   
    6.146       0.2529E-3    -.9855       0.1668E-2    -.9624   
    6.166       0.2556E-3    -.9855       0.1704E-2    -.9621   
    6.186       0.2584E-3    -.9854       0.1741E-2    -.9618   
    6.206       0.2611E-3    -.9854       0.1779E-2    -.9614   
    6.226       0.2639E-3    -.9853       0.1818E-2    -.9610   
    6.246       0.2668E-3    -.9853       0.1859E-2    -.9607   
    6.266       0.2696E-3    -.9852       0.1900E-2    -.9603   
    6.286       0.2726E-3    -.9852       0.1944E-2    -.9599   
    6.306       0.2756E-3    -.9851       0.1988E-2    -.9595   
    6.326       0.2786E-3    -.9850       0.2035E-2    -.9591   
    6.346       0.2816E-3    -.9850       0.2082E-2    -.9587   
    6.366       0.2848E-3    -.9849       0.2132E-2    -.9583   
    6.386       0.2879E-3    -.9849       0.2183E-2    -.9579   
    6.406       0.2911E-3    -.9848       0.2236E-2    -.9574   
    6.426       0.2944E-3    -.9848       0.2292E-2    -.9570   
    6.446       0.2977E-3    -.9847       0.2349E-2    -.9565   
    6.466       0.3011E-3    -.9846       0.2408E-2    -.9560   
    6.486       0.3045E-3    -.9846       0.2469E-2    -.9556   
    6.507       0.3080E-3    -.9845       0.2533E-2    -.9551   
    6.527       0.3116E-3    -.9845       0.2599E-2    -.9546   
    6.547       0.3152E-3    -.9844       0.2668E-2    -.9540   
    6.567       0.3188E-3    -.9843       0.2740E-2    -.9535   
    6.587       0.3225E-3    -.9843       0.2814E-2    -.9529   
    6.607       0.3263E-3    -.9842       0.2892E-2    -.9524   
    6.627       0.3302E-3    -.9841       0.2973E-2    -.9518   
    6.647       0.3341E-3    -.9841       0.3057E-2    -.9512   
    6.667       0.3381E-3    -.9840       0.3145E-2    -.9506   
    6.687       0.3421E-3    -.9839       0.3236E-2    -.9500   
    6.707       0.3462E-3    -.9839       0.3332E-2    -.9493   
    6.727       0.3504E-3    -.9838       0.3431E-2    -.9486   
    6.747       0.3547E-3    -.9837       0.3536E-2    -.9479   
    6.767       0.3590E-3    -.9837       0.3645E-2    -.9472   
    6.787       0.3635E-3    -.9836       0.3759E-2    -.9465   
    6.807       0.3680E-3    -.9835       0.3878E-2    -.9457   
    6.827       0.3725E-3    -.9834       0.4003E-2    -.9450   
    6.847       0.3772E-3    -.9834       0.4135E-2    -.9442   
    6.867       0.3820E-3    -.9833       0.4272E-2    -.9433   
    6.887       0.3868E-3    -.9832       0.4417E-2    -.9425   
    6.907       0.3917E-3    -.9831       0.4569E-2    -.9416   
    6.927       0.3968E-3    -.9831       0.4729E-2    -.9407   
    6.947       0.4019E-3    -.9830       0.4898E-2    -.9397   
    6.967       0.4071E-3    -.9829       0.5076E-2    -.9387   
    6.987       0.4124E-3    -.9828       0.5263E-2    -.9377   
    7.007       0.4178E-3    -.9827       0.5461E-2    -.9367   
    7.027       0.4234E-3    -.9826       0.5671E-2    -.9356   
    7.047       0.4290E-3    -.9826       0.5892E-2    -.9344   
    7.067       0.4348E-3    -.9825       0.6127E-2    -.9333   
    7.087       0.4406E-3    -.9824       0.6375E-2    -.9320   
    7.107       0.4466E-3    -.9823       0.6639E-2    -.9308   
    7.127       0.4527E-3    -.9822       0.6920E-2    -.9294   
    7.147       0.4590E-3    -.9821       0.7219E-2    -.9280   
    7.167       0.4653E-3    -.9820       0.7538E-2    -.9266   
    7.187       0.4718E-3    -.9819       0.7877E-2    -.9251   
    7.207       0.4785E-3    -.9818       0.8241E-2    -.9235   
    7.227       0.4852E-3    -.9817       0.8629E-2    -.9219   
    7.247       0.4922E-3    -.9816       0.9046E-2    -.9202   
    7.267       0.4992E-3    -.9815       0.9493E-2    -.9184   
    7.287       0.5065E-3    -.9814       0.9975E-2    -.9165   
    7.307       0.5139E-3    -.9813       0.1049E-1    -.9145   
    7.327       0.5214E-3    -.9812       0.1105E-1    -.9124   
    7.347       0.5291E-3    -.9811       0.1166E-1    -.9102   
    7.367       0.5370E-3    -.9810       0.1231E-1    -.9079   
    7.387       0.5451E-3    -.9809       0.1303E-1    -.9055   
    7.407       0.5534E-3    -.9808       0.1380E-1    -.9029   
    7.427       0.5618E-3    -.9807       0.1465E-1    -.9002   
    7.447       0.5705E-3    -.9806       0.1557E-1    -.8973   
    7.467       0.5793E-3    -.9805       0.1659E-1    -.8943   
    7.487       0.5884E-3    -.9804       0.1770E-1    -.8910   
    7.508       0.5977E-3    -.9802       0.1894E-1    -.8876   
    7.528       0.6072E-3    -.9801       0.2030E-1    -.8839   
    7.548       0.6170E-3    -.9800       0.2181E-1    -.8800   
    7.568       0.6270E-3    -.9799       0.2350E-1    -.8757   
    7.588       0.6373E-3    -.9797       0.2539E-1    -.8712   
    7.608       0.6478E-3    -.9796       0.2751E-1    -.8664   
    7.628       0.6586E-3    -.9795       0.2991E-1    -.8612   
    7.648       0.6697E-3    -.9794       0.3262E-1    -.8555   
    7.668       0.6810E-3    -.9792       0.3572E-1    -.8494   
    7.688       0.6927E-3    -.9791       0.3927E-1    -.8428   
    7.708       0.7047E-3    -.9789       0.4335E-1    -.8357   
    7.728       0.7170E-3    -.9788       0.4809E-1    -.8278   
    7.748       0.7296E-3    -.9787       0.5363E-1    -.8193   
    7.768       0.7426E-3    -.9785       0.6015E-1    -.8100   
    7.788       0.7560E-3    -.9784       0.6787E-1    -.7998   
    7.808       0.7697E-3    -.9782       0.7711E-1    -.7886   
    7.828       0.7839E-3    -.9781       0.8826E-1    -.7765   
    7.848       0.7984E-3    -.9779       0.1018       -.7632   
    7.868       0.8134E-3    -.9777       0.1185       -.7489   
    7.888       0.8289E-3    -.9776       0.1393       -.7337   
    7.908       0.8448E-3    -.9774       0.1653       -.7180   
    7.928       0.8612E-3    -.9772       0.1981       -.7026   
    7.948       0.8781E-3    -.9771       0.2396       -.6893   
    7.968       0.8955E-3    -.9769       0.2919       -.6810   
    7.988       0.9136E-3    -.9767       0.3565       -.6829   
    8.008       0.9321E-3    -.9765       0.4325       -.7029   
    8.028       0.9513E-3    -.9763       0.5138       -.7508   
    8.048       0.9712E-3    -.9761       0.5855       -.8339   
    8.068       0.9917E-3    -.9759       0.6264       -.9480   
    8.088       0.1013E-2    -.9757       0.6202       -1.073   
    8.108       0.1035E-2    -.9755       0.5696       -1.180   
    8.128       0.1058E-2    -.9753       0.4936       -1.254   
    8.148       0.1081E-2    -.9751       0.4126       -1.294   
    8.168       0.1106E-2    -.9749       0.3392       -1.309   
    8.188       0.1131E-2    -.9747       0.2777       -1.308   
    8.208       0.1157E-2    -.9745       0.2283       -1.298   
    8.228       0.1184E-2    -.9742       0.1892       -1.284   
    8.248       0.1213E-2    -.9740       0.1582       -1.268   
    8.268       0.1242E-2    -.9737       0.1337       -1.252   
    8.288       0.1273E-2    -.9735       0.1141       -1.237   
    8.308       0.1305E-2    -.9732       0.9821E-1    -1.223   
    8.328       0.1338E-2    -.9730       0.8530E-1    -1.210   
    8.348       0.1373E-2    -.9727       0.7467E-1    -1.198   
    8.368       0.1409E-2    -.9724       0.6585E-1    -1.188   
    8.388       0.1446E-2    -.9721       0.5845E-1    -1.178   
    8.408       0.1486E-2    -.9719       0.5221E-1    -1.168   
    8.428       0.1527E-2    -.9716       0.4689E-1    -1.160   
    8.448       0.1570E-2    -.9712       0.4232E-1    -1.152   
    8.468       0.1615E-2    -.9709       0.3838E-1    -1.145   
    8.488       0.1663E-2    -.9706       0.3496E-1    -1.139   
    8.509       0.1712E-2    -.9703       0.3197E-1    -1.133   
    8.529       0.1764E-2    -.9699       0.2934E-1    -1.127   
    8.549       0.1819E-2    -.9696       0.2702E-1    -1.122   
    8.569       0.1877E-2    -.9692       0.2497E-1    -1.118   
    8.589       0.1938E-2    -.9688       0.2314E-1    -1.113   
    8.609       0.2002E-2    -.9684       0.2150E-1    -1.109   
    8.629       0.2070E-2    -.9680       0.2003E-1    -1.105   
    8.649       0.2142E-2    -.9676       0.1870E-1    -1.101   
    8.669       0.2218E-2    -.9672       0.1750E-1    -1.098   
    8.689       0.2299E-2    -.9668       0.1642E-1    -1.095   
    8.709       0.2385E-2    -.9663       0.1543E-1    -1.092   
    8.729       0.2477E-2    -.9658       0.1453E-1    -1.089   
    8.749       0.2574E-2    -.9653       0.1371E-1    -1.086   
    8.769       0.2678E-2    -.9648       0.1295E-1    -1.084   
    8.789       0.2789E-2    -.9643       0.1226E-1    -1.081   
    8.809       0.2908E-2    -.9637       0.1163E-1    -1.079   
    8.829       0.3037E-2    -.9631       0.1104E-1    -1.077   
    8.849       0.3174E-2    -.9625       0.1050E-1    -1.075   
    8.869       0.3323E-2    -.9619       0.9994E-2    -1.073   
    8.889       0.3484E-2    -.9613       0.9528E-2    -1.071   
    8.909       0.3658E-2    -.9606       0.9096E-2    -1.069   
    8.929       0.3847E-2    -.9598       0.8694E-2    -1.067   
    8.949       0.4053E-2    -.9591       0.8320E-2    -1.066   
    8.969       0.4278E-2    -.9583       0.7972E-2    -1.064   
    8.989       0.4525E-2    -.9574       0.7647E-2    -1.062   
    9.009       0.4796E-2    -.9566       0.7343E-2    -1.061   
    9.029       0.5096E-2    -.9556       0.7059E-2    -1.060   
    9.049       0.5427E-2    -.9546       0.6794E-2    -1.058   
    9.069       0.5796E-2    -.9536       0.6546E-2    -1.057   
    9.089       0.6208E-2    -.9524       0.6313E-2    -1.056   
    9.109       0.6671E-2    -.9513       0.6096E-2    -1.054   
    9.129       0.7192E-2    -.9500       0.5892E-2    -1.053   
    9.149       0.7783E-2    -.9486       0.5701E-2    -1.052   
    9.169       0.8456E-2    -.9472       0.5523E-2    -1.051   
    9.189       0.9228E-2    -.9456       0.5356E-2    -1.050   
    9.209       0.1012E-1    -.9439       0.5200E-2    -1.049   
    9.229       0.1116E-1    -.9421       0.5055E-2    -1.048   
    9.249       0.1237E-1    -.9401       0.4921E-2    -1.047   
    9.269       0.1380E-1    -.9379       0.4796E-2    -1.046   
    9.289       0.1551E-1    -.9356       0.4681E-2    -1.045   
    9.309       0.1756E-1    -.9331       0.4575E-2    -1.044   
    9.329       0.2004E-1    -.9304       0.4479E-2    -1.043   
    9.349       0.2309E-1    -.9274       0.4392E-2    -1.042   
    9.369       0.2687E-1    -.9243       0.4315E-2    -1.041   
    9.389       0.3159E-1    -.9211       0.4248E-2    -1.041   
    9.409       0.3753E-1    -.9179       0.4191E-2    -1.040   
    9.429       0.4504E-1    -.9150       0.4145E-2    -1.039   
    9.449       0.5449E-1    -.9130       0.4111E-2    -1.038   
    9.469       0.6618E-1    -.9128       0.4089E-2    -1.037   
    9.489       0.8003E-1    -.9156       0.4081E-2    -1.037   
    9.510       0.9502E-1    -.9235       0.4089E-2    -1.036   
    9.530       0.1086       -.9377       0.4114E-2    -1.035   
    9.550       0.1169       -.9578       0.4159E-2    -1.034   
    9.570       0.1167       -.9803       0.4228E-2    -1.033   
    9.590       0.1082       -1.000       0.4325E-2    -1.033   
    9.610       0.9455E-1    -1.014       0.4456E-2    -1.032   
    9.630       0.7971E-1    -1.021       0.4628E-2    -1.031   
    9.650       0.6610E-1    -1.024       0.4850E-2    -1.030   
    9.670       0.5467E-1    -1.023       0.5137E-2    -1.029   
    9.690       0.4548E-1    -1.021       0.5504E-2    -1.028   
    9.710       0.3821E-1    -1.018       0.5975E-2    -1.028   
    9.730       0.3249E-1    -1.015       0.6579E-2    -1.027   
    9.750       0.2799E-1    -1.011       0.7355E-2    -1.026   
    9.770       0.2441E-1    -1.008       0.8354E-2    -1.025   
    9.790       0.2156E-1    -1.005       0.9631E-2    -1.024   
     9.80981      0.01926     -1.00151      0.01124     -1.02369
     9.82983      0.01740     -0.99862      0.01320     -1.02357
     9.84985      0.01589     -0.99590      0.01542     -1.02413
     9.86987      0.01465     -0.99332      0.01760     -1.02561
     9.88989      0.01364     -0.99087      0.01920     -1.02809
     9.90991      0.01281     -0.98853      0.01964     -1.03120
     9.92993      0.01214     -0.98629      0.01871     -1.03419
     9.94995      0.01159     -0.98413      0.01678     -1.03640
     9.96997      0.01116     -0.98204      0.01446     -1.03762
     9.98999      0.01081     -0.98000      0.01222     -1.03799
    10.01001      0.01055     -0.97800      0.01028     -1.03780
    10.03       0.1037E-1    -.9760       0.8695E-2    -1.037   
    10.05       0.1025E-1    -.9741       0.7426E-2    -1.037   
    10.07       0.1019E-1    -.9721       0.6417E-2    -1.036   
    10.09       0.1019E-1    -.9702       0.5613E-2    -1.035   
    10.11       0.1024E-1    -.9682       0.4967E-2    -1.034   
    10.13       0.1035E-1    -.9663       0.4443E-2    -1.034   
    10.15       0.1051E-1    -.9643       0.4013E-2    -1.033   
    10.17       0.1073E-1    -.9622       0.3657E-2    -1.032   
    10.19       0.1100E-1    -.9602       0.3358E-2    -1.032   
    10.21       0.1133E-1    -.9580       0.3105E-2    -1.031   
    10.23       0.1171E-1    -.9558       0.2888E-2    -1.031   
    10.25       0.1216E-1    -.9536       0.2701E-2    -1.030   
    10.27       0.1269E-1    -.9512       0.2539E-2    -1.030   
    10.29       0.1328E-1    -.9487       0.2396E-2    -1.029   
    10.31       0.1397E-1    -.9462       0.2270E-2    -1.029   
    10.33       0.1475E-1    -.9435       0.2158E-2    -1.028   
    10.35       0.1563E-1    -.9406       0.2057E-2    -1.028   
    10.37       0.1663E-1    -.9376       0.1967E-2    -1.028   
    10.39       0.1778E-1    -.9344       0.1885E-2    -1.027   
    10.41       0.1908E-1    -.9311       0.1810E-2    -1.027   
    10.43       0.2058E-1    -.9275       0.1742E-2    -1.026   
    10.45       0.2229E-1    -.9236       0.1679E-2    -1.026   
    10.47       0.2426E-1    -.9194       0.1621E-2    -1.026   
    10.49       0.2653E-1    -.9150       0.1567E-2    -1.026   
    10.51       0.2918E-1    -.9102       0.1517E-2    -1.025   
    10.53       0.3228E-1    -.9049       0.1471E-2    -1.025   
    10.55       0.3592E-1    -.8992       0.1428E-2    -1.025   
    10.57       0.4023E-1    -.8931       0.1387E-2    -1.024   
    10.59       0.4539E-1    -.8863       0.1349E-2    -1.024   
    10.61       0.5159E-1    -.8790       0.1313E-2    -1.024   
    10.63       0.5913E-1    -.8710       0.1278E-2    -1.024   
    10.65       0.6838E-1    -.8624       0.1246E-2    -1.023   
    10.67       0.7982E-1    -.8532       0.1216E-2    -1.023   
    10.69       0.9413E-1    -.8436       0.1187E-2    -1.023   
    10.71       0.1121       -.8339       0.1159E-2    -1.023   
    10.73       0.1349       -.8250       0.1132E-2    -1.022   
    10.75       0.1638       -.8182       0.1107E-2    -1.022   
    10.77       0.1997       -.8161       0.1083E-2    -1.022   
    10.79       0.2431       -.8227       0.1060E-2    -1.022   
    10.81       0.2919       -.8438       0.1038E-2    -1.022   
    10.83       0.3393       -.8848       0.1017E-2    -1.021   
    10.85       0.3737       -.9470       0.9963E-3    -1.021   
    10.87       0.3825       -1.022       0.9767E-3    -1.021   
    10.89       0.3622       -1.093       0.9578E-3    -1.021   
    10.91       0.3209       -1.147       0.9395E-3    -1.021   
    10.93       0.2717       -1.180       0.9219E-3    -1.020   
    10.95       0.2246       -1.194       0.9049E-3    -1.020   
    10.97       0.1840       -1.197       0.8885E-3    -1.020   
    10.99       0.1510       -1.193       0.8727E-3    -1.020   
    11.01       0.1248       -1.185       0.8573E-3    -1.020   
    11.03       0.1040       -1.175       0.8424E-3    -1.019   
    11.05       0.8755E-1    -1.166       0.8280E-3    -1.019   
    11.07       0.7445E-1    -1.156       0.8140E-3    -1.019   
    11.09       0.6392E-1    -1.147       0.8004E-3    -1.019   
    11.11       0.5536E-1    -1.139       0.7872E-3    -1.019   
    11.13       0.4835E-1    -1.132       0.7744E-3    -1.019   
    11.15       0.4255E-1    -1.125       0.7620E-3    -1.019   
    11.17       0.3770E-1    -1.118       0.7499E-3    -1.018   
    11.19       0.3362E-1    -1.112       0.7381E-3    -1.018   
    11.21       0.3015E-1    -1.107       0.7267E-3    -1.018   
    11.23       0.2719E-1    -1.102       0.7155E-3    -1.018   
    11.25       0.2463E-1    -1.098       0.7047E-3    -1.018   
    11.27       0.2242E-1    -1.094       0.6941E-3    -1.018   
    11.29       0.2049E-1    -1.090       0.6837E-3    -1.018   
    11.31       0.1879E-1    -1.086       0.6737E-3    -1.017   
    11.33       0.1730E-1    -1.083       0.6639E-3    -1.017   
    11.35       0.1598E-1    -1.080       0.6543E-3    -1.017   
    11.37       0.1480E-1    -1.077       0.6449E-3    -1.017   
    11.39       0.1375E-1    -1.074       0.6358E-3    -1.017   
    11.41       0.1280E-1    -1.072       0.6269E-3    -1.017   
    11.43       0.1195E-1    -1.070       0.6181E-3    -1.017   
    11.45       0.1118E-1    -1.067       0.6096E-3    -1.016   
    11.47       0.1049E-1    -1.065       0.6013E-3    -1.016   
    11.49       0.9856E-2    -1.063       0.5931E-3    -1.016   
    11.51       0.9279E-2    -1.062       0.5852E-3    -1.016   
    11.53       0.8752E-2    -1.060       0.5774E-3    -1.016   
    11.55       0.8268E-2    -1.058       0.5697E-3    -1.016   
    11.57       0.7824E-2    -1.057       0.5623E-3    -1.016   
    11.59       0.7415E-2    -1.055       0.5549E-3    -1.016   
    11.61       0.7037E-2    -1.054       0.5478E-3    -1.016   
    11.63       0.6688E-2    -1.052       0.5408E-3    -1.015   
    11.65       0.6364E-2    -1.051       0.5339E-3    -1.015   
    11.67       0.6064E-2    -1.050       0.5271E-3    -1.015   
    11.69       0.5784E-2    -1.049       0.5205E-3    -1.015   
    11.71       0.5523E-2    -1.048       0.5141E-3    -1.015   
    11.73       0.5280E-2    -1.047       0.5077E-3    -1.015   
    11.75       0.5053E-2    -1.046       0.5015E-3    -1.015   
    11.77       0.4840E-2    -1.045       0.4954E-3    -1.015   
    11.79       0.4641E-2    -1.044       0.4894E-3    -1.015   
    11.81       0.4453E-2    -1.043       0.4835E-3    -1.015   
    11.83       0.4277E-2    -1.042       0.4778E-3    -1.014   
    11.85       0.4112E-2    -1.041       0.4721E-3    -1.014   
    11.87       0.3956E-2    -1.040       0.4665E-3    -1.014   
    11.89       0.3808E-2    -1.040       0.4611E-3    -1.014   
    11.91       0.3669E-2    -1.039       0.4557E-3    -1.014   
    11.93       0.3537E-2    -1.038       0.4505E-3    -1.014   
    11.95       0.3413E-2    -1.038       0.4453E-3    -1.014   
    11.97       0.3295E-2    -1.037       0.4402E-3    -1.014   
    11.99       0.3183E-2    -1.036       0.4352E-3    -1.014   
    12.01       0.3077E-2    -1.036       0.4303E-3    -1.014   
    12.03       0.2976E-2    -1.035       0.4255E-3    -1.014   
    12.05       0.2880E-2    -1.034       0.4208E-3    -1.013   
    12.07       0.2788E-2    -1.034       0.4161E-3    -1.013   
    12.09       0.2701E-2    -1.033       0.4116E-3    -1.013   
    12.11       0.2618E-2    -1.033       0.4071E-3    -1.013   
    12.13       0.2539E-2    -1.032       0.4026E-3    -1.013   
    12.15       0.2464E-2    -1.032       0.3983E-3    -1.013   
    12.17       0.2391E-2    -1.031       0.3940E-3    -1.013   
    12.19       0.2322E-2    -1.031       0.3898E-3    -1.013   
    12.21       0.2256E-2    -1.030       0.3857E-3    -1.013   
    12.23       0.2193E-2    -1.030       0.3816E-3    -1.013   
    12.25       0.2132E-2    -1.030       0.3776E-3    -1.013   
    12.27       0.2074E-2    -1.029       0.3736E-3    -1.013   
    12.29       0.2018E-2    -1.029       0.3697E-3    -1.013   
    12.31       0.1965E-2    -1.028       0.3659E-3    -1.012   
    12.33       0.1913E-2    -1.028       0.3622E-3    -1.012   
    12.35       0.1864E-2    -1.028       0.3584E-3    -1.012   
    12.37       0.1817E-2    -1.027       0.3548E-3    -1.012   
    12.39       0.1771E-2    -1.027       0.3512E-3    -1.012   
    12.41       0.1727E-2    -1.027       0.3477E-3    -1.012   
    12.43       0.1685E-2    -1.026       0.3442E-3    -1.012   
    12.45       0.1644E-2    -1.026       0.3408E-3    -1.012   
    12.47       0.1605E-2    -1.026       0.3374E-3    -1.012   
    12.49       0.1567E-2    -1.025       0.3340E-3    -1.012   
    12.51       0.1530E-2    -1.025       0.3308E-3    -1.012   
    12.53       0.1495E-2    -1.025       0.3275E-3    -1.012   
    12.55       0.1461E-2    -1.024       0.3243E-3    -1.012   
    12.57       0.1428E-2    -1.024       0.3212E-3    -1.012   
    12.59       0.1396E-2    -1.024       0.3181E-3    -1.011   
    12.61       0.1366E-2    -1.023       0.3151E-3    -1.011   
    12.63       0.1336E-2    -1.023       0.3121E-3    -1.011   
    12.65       0.1307E-2    -1.023       0.3091E-3    -1.011   
    12.67       0.1279E-2    -1.023       0.3062E-3    -1.011   
    12.69       0.1252E-2    -1.022       0.3033E-3    -1.011   
    12.71       0.1226E-2    -1.022       0.3005E-3    -1.011   
    12.73       0.1201E-2    -1.022       0.2977E-3    -1.011   
    12.75       0.1177E-2    -1.022       0.2949E-3    -1.011   
    12.77       0.1153E-2    -1.021       0.2922E-3    -1.011   
    12.79       0.1130E-2    -1.021       0.2895E-3    -1.011   
    12.81       0.1107E-2    -1.021       0.2868E-3    -1.011   
    12.83       0.1086E-2    -1.021       0.2842E-3    -1.011   
    12.85       0.1065E-2    -1.021       0.2816E-3    -1.011   
    12.87       0.1044E-2    -1.020       0.2791E-3    -1.011   
    12.89       0.1024E-2    -1.020       0.2766E-3    -1.011   
    12.91       0.1005E-2    -1.020       0.2741E-3    -1.011   
    12.93       0.9865E-3    -1.020       0.2717E-3    -1.010   
    12.95       0.9683E-3    -1.020       0.2693E-3    -1.010   
    12.97       0.9506E-3    -1.019       0.2669E-3    -1.010   
    12.99       0.9333E-3    -1.019       0.2645E-3    -1.010   
    13.01       0.9166E-3    -1.019       0.2622E-3    -1.010   
    13.03       0.9003E-3    -1.019       0.2599E-3    -1.010   
    13.05       0.8844E-3    -1.019       0.2577E-3    -1.010   
    13.07       0.8689E-3    -1.018       0.2554E-3    -1.010   
    13.09       0.8539E-3    -1.018       0.2532E-3    -1.010   
    13.11       0.8392E-3    -1.018       0.2510E-3    -1.010   
    13.13       0.8249E-3    -1.018       0.2489E-3    -1.010   
    13.15       0.8110E-3    -1.018       0.2468E-3    -1.010   
    13.17       0.7974E-3    -1.018       0.2447E-3    -1.010   
    13.19       0.7842E-3    -1.017       0.2426E-3    -1.010   
    13.21       0.7713E-3    -1.017       0.2406E-3    -1.010   
    13.23       0.7587E-3    -1.017       0.2386E-3    -1.010   
    13.25       0.7464E-3    -1.017       0.2366E-3    -1.010   
    13.27       0.7344E-3    -1.017       0.2346E-3    -1.010   
    13.29       0.7227E-3    -1.017       0.2327E-3    -1.010   
    13.31       0.7113E-3    -1.017       0.2307E-3    -1.010   
    13.33       0.7002E-3    -1.016       0.2289E-3    -1.009   
    13.35       0.6893E-3    -1.016       0.2270E-3    -1.009   
    13.37       0.6786E-3    -1.016       0.2251E-3    -1.009   
    13.39       0.6682E-3    -1.016       0.2233E-3    -1.009   
    13.41       0.6581E-3    -1.016       0.2215E-3    -1.009   
    13.43       0.6482E-3    -1.016       0.2197E-3    -1.009   
    13.45       0.6384E-3    -1.016       0.2179E-3    -1.009   
    13.47       0.6290E-3    -1.016       0.2162E-3    -1.009   
    13.49       0.6197E-3    -1.015       0.2145E-3    -1.009   
    13.51       0.6106E-3    -1.015       0.2128E-3    -1.009   
    13.53       0.6017E-3    -1.015       0.2111E-3    -1.009   
    13.55       0.5931E-3    -1.015       0.2094E-3    -1.009   
    13.57       0.5846E-3    -1.015       0.2078E-3    -1.009   
    13.59       0.5763E-3    -1.015       0.2062E-3    -1.009   
    13.61       0.5681E-3    -1.015       0.2045E-3    -1.009   
    13.63       0.5602E-3    -1.015       0.2030E-3    -1.009   
    13.65       0.5524E-3    -1.014       0.2014E-3    -1.009   
    13.67       0.5447E-3    -1.014       0.1998E-3    -1.009   
    13.69       0.5372E-3    -1.014       0.1983E-3    -1.009   
    13.71       0.5299E-3    -1.014       0.1968E-3    -1.009   
    13.73       0.5227E-3    -1.014       0.1953E-3    -1.009   
    13.75       0.5157E-3    -1.014       0.1938E-3    -1.009   
    13.77       0.5088E-3    -1.014       0.1923E-3    -1.009   
    13.79       0.5020E-3    -1.014       0.1909E-3    -1.009   
    13.81       0.4954E-3    -1.014       0.1894E-3    -1.008   
    13.83       0.4889E-3    -1.014       0.1880E-3    -1.008   
    13.85       0.4826E-3    -1.013       0.1866E-3    -1.008   
    13.87       0.4763E-3    -1.013       0.1852E-3    -1.008   
    13.89       0.4702E-3    -1.013       0.1838E-3    -1.008   
    13.91       0.4642E-3    -1.013       0.1825E-3    -1.008   
    13.93       0.4583E-3    -1.013       0.1811E-3    -1.008   
    13.95       0.4525E-3    -1.013       0.1798E-3    -1.008   
    13.97       0.4468E-3    -1.013       0.1785E-3    -1.008   
    13.99       0.4413E-3    -1.013       0.1772E-3    -1.008   
    14.01       0.4358E-3    -1.013       0.1759E-3    -1.008   
    14.03       0.4304E-3    -1.013       0.1746E-3    -1.008   
    14.05       0.4252E-3    -1.013       0.1734E-3    -1.008   
    14.07       0.4200E-3    -1.012       0.1721E-3    -1.008   
    14.09       0.4149E-3    -1.012       0.1709E-3    -1.008   
    14.11       0.4100E-3    -1.012       0.1696E-3    -1.008   
    14.13       0.4051E-3    -1.012       0.1684E-3    -1.008   
    14.15       0.4002E-3    -1.012       0.1672E-3    -1.008   
    14.17       0.3955E-3    -1.012       0.1661E-3    -1.008   
    14.19       0.3909E-3    -1.012       0.1649E-3    -1.008   
    14.21       0.3863E-3    -1.012       0.1637E-3    -1.008   
    14.23       0.3818E-3    -1.012       0.1626E-3    -1.008   
    14.25       0.3774E-3    -1.012       0.1614E-3    -1.008   
    14.27       0.3731E-3    -1.012       0.1603E-3    -1.008   
    14.29       0.3688E-3    -1.012       0.1592E-3    -1.008   
    14.31       0.3647E-3    -1.012       0.1581E-3    -1.008   
    14.33       0.3605E-3    -1.011       0.1570E-3    -1.008   
    14.35       0.3565E-3    -1.011       0.1559E-3    -1.008   
    14.37       0.3525E-3    -1.011       0.1548E-3    -1.008   
    14.39       0.3486E-3    -1.011       0.1538E-3    -1.007   
    14.41       0.3448E-3    -1.011       0.1527E-3    -1.007   
    14.43       0.3410E-3    -1.011       0.1517E-3    -1.007   
    14.45       0.3373E-3    -1.011       0.1507E-3    -1.007   
    14.47       0.3336E-3    -1.011       0.1496E-3    -1.007   
    14.49       0.3300E-3    -1.011       0.1486E-3    -1.007   
    14.51       0.3264E-3    -1.011       0.1476E-3    -1.007   
    14.53       0.3229E-3    -1.011       0.1466E-3    -1.007   
    14.55       0.3195E-3    -1.011       0.1457E-3    -1.007   
    14.57       0.3161E-3    -1.011       0.1447E-3    -1.007   
    14.59       0.3128E-3    -1.011       0.1437E-3    -1.007   
    14.61       0.3095E-3    -1.011       0.1428E-3    -1.007   
    14.63       0.3063E-3    -1.010       0.1418E-3    -1.007   
    14.65       0.3031E-3    -1.010       0.1409E-3    -1.007   
    14.67       0.3000E-3    -1.010       0.1400E-3    -1.007   
    14.69       0.2969E-3    -1.010       0.1391E-3    -1.007   
    14.71       0.2939E-3    -1.010       0.1381E-3    -1.007   
    14.73       0.2909E-3    -1.010       0.1372E-3    -1.007   
    14.75       0.2880E-3    -1.010       0.1364E-3    -1.007   
    14.77       0.2851E-3    -1.010       0.1355E-3    -1.007   
    14.79       0.2822E-3    -1.010       0.1346E-3    -1.007   
    14.81       0.2794E-3    -1.010       0.1337E-3    -1.007   
    14.83       0.2766E-3    -1.010       0.1329E-3    -1.007   
    14.85       0.2739E-3    -1.010       0.1320E-3    -1.007   
    14.87       0.2712E-3    -1.010       0.1312E-3    -1.007   
    14.89       0.2685E-3    -1.010       0.1303E-3    -1.007   
    14.91       0.2659E-3    -1.010       0.1295E-3    -1.007   
    14.93       0.2633E-3    -1.010       0.1287E-3    -1.007   
    14.95       0.2608E-3    -1.010       0.1279E-3    -1.007   
    14.97       0.2583E-3    -1.009       0.1271E-3    -1.007   
    14.99       0.2558E-3    -1.009       0.1263E-3    -1.007   
    15.02       0.2534E-3    -1.009       0.1255E-3    -1.007   
    15.04       0.2510E-3    -1.009       0.1247E-3    -1.007   
    15.06       0.2486E-3    -1.009       0.1239E-3    -1.007   
    15.08       0.2463E-3    -1.009       0.1232E-3    -1.007   
    15.10       0.2440E-3    -1.009       0.1224E-3    -1.007   
    15.12       0.2417E-3    -1.009       0.1216E-3    -1.007   
    15.14       0.2395E-3    -1.009       0.1209E-3    -1.006   
    15.16       0.2373E-3    -1.009       0.1202E-3    -1.006   
    15.18       0.2351E-3    -1.009       0.1194E-3    -1.006   
    15.20       0.2330E-3    -1.009       0.1187E-3    -1.006   
    15.22       0.2308E-3    -1.009       0.1180E-3    -1.006   
    15.24       0.2288E-3    -1.009       0.1172E-3    -1.006   
    15.26       0.2267E-3    -1.009       0.1165E-3    -1.006   
    15.28       0.2247E-3    -1.009       0.1158E-3    -1.006   
    15.30       0.2226E-3    -1.009       0.1151E-3    -1.006   
    15.32       0.2207E-3    -1.009       0.1144E-3    -1.006   
    15.34       0.2187E-3    -1.009       0.1138E-3    -1.006   
    15.36       0.2168E-3    -1.009       0.1131E-3    -1.006   
    15.38       0.2149E-3    -1.009       0.1124E-3    -1.006   
    15.40       0.2130E-3    -1.009       0.1117E-3    -1.006   
    15.42       0.2111E-3    -1.008       0.1111E-3    -1.006   
    15.44       0.2093E-3    -1.008       0.1104E-3    -1.006   
    15.46       0.2075E-3    -1.008       0.1098E-3    -1.006   
    15.48       0.2057E-3    -1.008       0.1091E-3    -1.006   
    15.50       0.2039E-3    -1.008       0.1085E-3    -1.006   
    15.52       0.2022E-3    -1.008       0.1078E-3    -1.006   
    15.54       0.2005E-3    -1.008       0.1072E-3    -1.006   
    15.56       0.1988E-3    -1.008       0.1066E-3    -1.006   
    15.58       0.1971E-3    -1.008       0.1060E-3    -1.006   
    15.60       0.1954E-3    -1.008       0.1053E-3    -1.006   
    15.62       0.1938E-3    -1.008       0.1047E-3    -1.006   
    15.64       0.1922E-3    -1.008       0.1041E-3    -1.006   
    15.66       0.1906E-3    -1.008       0.1035E-3    -1.006   
    15.68       0.1890E-3    -1.008       0.1029E-3    -1.006   
    15.70       0.1875E-3    -1.008       0.1024E-3    -1.006   
    15.72       0.1859E-3    -1.008       0.1018E-3    -1.006   
    15.74       0.1844E-3    -1.008       0.1012E-3    -1.006   
    15.76       0.1829E-3    -1.008       0.1006E-3    -1.006   
    15.78       0.1814E-3    -1.008       0.1000E-3    -1.006   
    15.80       0.1799E-3    -1.008       0.9947E-4    -1.006   
    15.82       0.1785E-3    -1.008       0.9891E-4    -1.006   
    15.84       0.1771E-3    -1.008       0.9835E-4    -1.006   
    15.86       0.1756E-3    -1.008       0.9780E-4    -1.006   
    15.88       0.1742E-3    -1.008       0.9725E-4    -1.006   
    15.90       0.1729E-3    -1.008       0.9671E-4    -1.006   
    15.92       0.1715E-3    -1.008       0.9617E-4    -1.006   
    15.94       0.1701E-3    -1.007       0.9564E-4    -1.006   
    15.96       0.1688E-3    -1.007       0.9510E-4    -1.006   
    15.98       0.1675E-3    -1.007       0.9458E-4    -1.006   
    16.00       0.1662E-3    -1.007       0.9405E-4    -1.006   
    16.02       0.1649E-3    -1.007       0.9354E-4    -1.006   
    16.04       0.1636E-3    -1.007       0.9302E-4    -1.006   
    16.06       0.1624E-3    -1.007       0.9251E-4    -1.006   
    16.08       0.1611E-3    -1.007       0.9201E-4    -1.005   
    16.10       0.1599E-3    -1.007       0.9150E-4    -1.005   
    16.12       0.1587E-3    -1.007       0.9100E-4    -1.005   
    16.14       0.1575E-3    -1.007       0.9051E-4    -1.005   
    16.16       0.1563E-3    -1.007       0.9002E-4    -1.005   
    16.18       0.1551E-3    -1.007       0.8953E-4    -1.005   
    16.20       0.1539E-3    -1.007       0.8905E-4    -1.005   
    16.22       0.1528E-3    -1.007       0.8857E-4    -1.005   
    16.24       0.1516E-3    -1.007       0.8809E-4    -1.005   
    16.26       0.1505E-3    -1.007       0.8762E-4    -1.005   
    16.28       0.1494E-3    -1.007       0.8715E-4    -1.005   
    16.30       0.1483E-3    -1.007       0.8669E-4    -1.005   
    16.32       0.1472E-3    -1.007       0.8623E-4    -1.005   
    16.34       0.1461E-3    -1.007       0.8577E-4    -1.005   
    16.36       0.1450E-3    -1.007       0.8531E-4    -1.005   
    16.38       0.1440E-3    -1.007       0.8486E-4    -1.005   
    16.40       0.1429E-3    -1.007       0.8441E-4    -1.005   
    16.42       0.1419E-3    -1.007       0.8397E-4    -1.005   
    16.44       0.1409E-3    -1.007       0.8353E-4    -1.005   
    16.46       0.1399E-3    -1.007       0.8309E-4    -1.005   
    16.48       0.1389E-3    -1.007       0.8266E-4    -1.005   
    16.50       0.1379E-3    -1.007       0.8222E-4    -1.005   
    16.52       0.1369E-3    -1.007       0.8180E-4    -1.005   
    16.54       0.1359E-3    -1.007       0.8137E-4    -1.005   
    16.56       0.1350E-3    -1.007       0.8095E-4    -1.005   
    16.58       0.1340E-3    -1.007       0.8053E-4    -1.005   
    16.60       0.1331E-3    -1.006       0.8012E-4    -1.005   
    16.62       0.1321E-3    -1.006       0.7970E-4    -1.005   
    16.64       0.1312E-3    -1.006       0.7929E-4    -1.005   
    16.66       0.1303E-3    -1.006       0.7889E-4    -1.005   
    16.68       0.1294E-3    -1.006       0.7848E-4    -1.005   
    16.70       0.1285E-3    -1.006       0.7808E-4    -1.005   
    16.72       0.1276E-3    -1.006       0.7768E-4    -1.005   
    16.74       0.1267E-3    -1.006       0.7729E-4    -1.005   
    16.76       0.1259E-3    -1.006       0.7690E-4    -1.005   
    16.78       0.1250E-3    -1.006       0.7651E-4    -1.005   
    16.80       0.1242E-3    -1.006       0.7612E-4    -1.005   
    16.82       0.1233E-3    -1.006       0.7574E-4    -1.005   
    16.84       0.1225E-3    -1.006       0.7536E-4    -1.005   
    16.86       0.1217E-3    -1.006       0.7498E-4    -1.005   
    16.88       0.1209E-3    -1.006       0.7460E-4    -1.005   
    16.90       0.1200E-3    -1.006       0.7423E-4    -1.005   
    16.92       0.1192E-3    -1.006       0.7386E-4    -1.005   
    16.94       0.1184E-3    -1.006       0.7349E-4    -1.005   
    16.96       0.1177E-3    -1.006       0.7313E-4    -1.005   
    16.98       0.1169E-3    -1.006       0.7276E-4    -1.005   
    17.00       0.1161E-3    -1.006       0.7240E-4    -1.005   
    17.02       0.1153E-3    -1.006       0.7205E-4    -1.005   
    17.04       0.1146E-3    -1.006       0.7169E-4    -1.005   
    17.06       0.1138E-3    -1.006       0.7134E-4    -1.005   
    17.08       0.1131E-3    -1.006       0.7099E-4    -1.005   
    17.10       0.1124E-3    -1.006       0.7064E-4    -1.005   
    17.12       0.1116E-3    -1.006       0.7030E-4    -1.005   
    17.14       0.1109E-3    -1.006       0.6995E-4    -1.005   
    17.16       0.1102E-3    -1.006       0.6961E-4    -1.005   
    17.18       0.1095E-3    -1.006       0.6927E-4    -1.005   
    17.20       0.1088E-3    -1.006       0.6894E-4    -1.005   
    17.22       0.1081E-3    -1.006       0.6861E-4    -1.005   
    17.24       0.1074E-3    -1.006       0.6827E-4    -1.005   
    17.26       0.1067E-3    -1.006       0.6795E-4    -1.005   
    17.28       0.1060E-3    -1.006       0.6762E-4    -1.005   
    17.30       0.1054E-3    -1.006       0.6729E-4    -1.005   
    17.32       0.1047E-3    -1.006       0.6697E-4    -1.005   
    17.34       0.1041E-3    -1.006       0.6665E-4    -1.004   
    17.36       0.1034E-3    -1.006       0.6633E-4    -1.004   
    17.38       0.1028E-3    -1.006       0.6602E-4    -1.004   
    17.40       0.1021E-3    -1.006       0.6570E-4    -1.004   
    17.42       0.1015E-3    -1.006       0.6539E-4    -1.004   
    17.44       0.1009E-3    -1.006       0.6508E-4    -1.004   
    17.46       0.1002E-3    -1.005       0.6478E-4    -1.004   
    17.48       0.9962E-4    -1.005       0.6447E-4    -1.004   
    17.50       0.9901E-4    -1.005       0.6417E-4    -1.004   
    17.52       0.9840E-4    -1.005       0.6387E-4    -1.004   
    17.54       0.9780E-4    -1.005       0.6357E-4    -1.004   
    17.56       0.9721E-4    -1.005       0.6327E-4    -1.004   
    17.58       0.9662E-4    -1.005       0.6297E-4    -1.004   
    17.60       0.9603E-4    -1.005       0.6268E-4    -1.004   
    17.62       0.9545E-4    -1.005       0.6239E-4    -1.004   
    17.64       0.9488E-4    -1.005       0.6210E-4    -1.004   
    17.66       0.9431E-4    -1.005       0.6181E-4    -1.004   
    17.68       0.9374E-4    -1.005       0.6153E-4    -1.004   
    17.70       0.9318E-4    -1.005       0.6124E-4    -1.004   
    17.72       0.9263E-4    -1.005       0.6096E-4    -1.004   
    17.74       0.9208E-4    -1.005       0.6068E-4    -1.004   
    17.76       0.9153E-4    -1.005       0.6040E-4    -1.004   
    17.78       0.9099E-4    -1.005       0.6012E-4    -1.004   
    17.80       0.9046E-4    -1.005       0.5985E-4    -1.004   
    17.82       0.8992E-4    -1.005       0.5958E-4    -1.004   
    17.84       0.8940E-4    -1.005       0.5930E-4    -1.004   
    17.86       0.8887E-4    -1.005       0.5904E-4    -1.004   
    17.88       0.8836E-4    -1.005       0.5877E-4    -1.004   
    17.90       0.8784E-4    -1.005       0.5850E-4    -1.004   
    17.92       0.8733E-4    -1.005       0.5824E-4    -1.004   
    17.94       0.8683E-4    -1.005       0.5797E-4    -1.004   
    17.96       0.8633E-4    -1.005       0.5771E-4    -1.004   
    17.98       0.8583E-4    -1.005       0.5745E-4    -1.004   
    18.00       0.8534E-4    -1.005       0.5720E-4    -1.004   
    18.02       0.8485E-4    -1.005       0.5694E-4    -1.004   
    18.04       0.8436E-4    -1.005       0.5668E-4    -1.004   
    18.06       0.8388E-4    -1.005       0.5643E-4    -1.004   
    18.08       0.8341E-4    -1.005       0.5618E-4    -1.004   
    18.10       0.8293E-4    -1.005       0.5593E-4    -1.004   
    18.12       0.8246E-4    -1.005       0.5568E-4    -1.004   
    18.14       0.8200E-4    -1.005       0.5544E-4    -1.004   
    18.16       0.8154E-4    -1.005       0.5519E-4    -1.004   
    18.18       0.8108E-4    -1.005       0.5495E-4    -1.004   
    18.20       0.8063E-4    -1.005       0.5470E-4    -1.004   
    18.22       0.8018E-4    -1.005       0.5446E-4    -1.004   
    18.24       0.7973E-4    -1.005       0.5422E-4    -1.004   
    18.26       0.7929E-4    -1.005       0.5399E-4    -1.004   
    18.28       0.7885E-4    -1.005       0.5375E-4    -1.004   
    18.30       0.7841E-4    -1.005       0.5352E-4    -1.004   
    18.32       0.7798E-4    -1.005       0.5328E-4    -1.004   
    18.34       0.7755E-4    -1.005       0.5305E-4    -1.004   
    18.36       0.7713E-4    -1.005       0.5282E-4    -1.004   
    18.38       0.7670E-4    -1.005       0.5259E-4    -1.004   
    18.40       0.7628E-4    -1.005       0.5236E-4    -1.004   
    18.42       0.7587E-4    -1.005       0.5214E-4    -1.004   
    18.44       0.7546E-4    -1.005       0.5191E-4    -1.004   
    18.46       0.7505E-4    -1.005       0.5169E-4    -1.004   
    18.48       0.7464E-4    -1.005       0.5147E-4    -1.004   
    18.50       0.7424E-4    -1.005       0.5125E-4    -1.004   
    18.52       0.7384E-4    -1.005       0.5103E-4    -1.004   
    18.54       0.7344E-4    -1.005       0.5081E-4    -1.004   
    18.56       0.7305E-4    -1.005       0.5059E-4    -1.004   
    18.58       0.7266E-4    -1.005       0.5038E-4    -1.004   
    18.60       0.7227E-4    -1.005       0.5016E-4    -1.004   
    18.62       0.7189E-4    -1.005       0.4995E-4    -1.004   
    18.64       0.7151E-4    -1.004       0.4974E-4    -1.004   
    18.66       0.7113E-4    -1.004       0.4953E-4    -1.004   
    18.68       0.7075E-4    -1.004       0.4932E-4    -1.004   
    18.70       0.7038E-4    -1.004       0.4911E-4    -1.004   
    18.72       0.7001E-4    -1.004       0.4890E-4    -1.004   
    18.74       0.6964E-4    -1.004       0.4870E-4    -1.004   
    18.76       0.6928E-4    -1.004       0.4849E-4    -1.004   
    18.78       0.6891E-4    -1.004       0.4829E-4    -1.004   
    18.80       0.6856E-4    -1.004       0.4809E-4    -1.004   
    18.82       0.6820E-4    -1.004       0.4789E-4    -1.004   
    18.84       0.6785E-4    -1.004       0.4769E-4    -1.004   
    18.86       0.6749E-4    -1.004       0.4749E-4    -1.004   
    18.88       0.6715E-4    -1.004       0.4729E-4    -1.004   
    18.90       0.6680E-4    -1.004       0.4710E-4    -1.004   
    18.92       0.6646E-4    -1.004       0.4690E-4    -1.004   
    18.94       0.6612E-4    -1.004       0.4671E-4    -1.004   
    18.96       0.6578E-4    -1.004       0.4651E-4    -1.004   
    18.98       0.6544E-4    -1.004       0.4632E-4    -1.004   
    19.00       0.6511E-4    -1.004       0.4613E-4    -1.004   
    19.02       0.6478E-4    -1.004       0.4594E-4    -1.004   
    19.04       0.6445E-4    -1.004       0.4575E-4    -1.004   
    19.06       0.6412E-4    -1.004       0.4557E-4    -1.004   
    19.08       0.6380E-4    -1.004       0.4538E-4    -1.004   
    19.10       0.6348E-4    -1.004       0.4520E-4    -1.004   
    19.12       0.6316E-4    -1.004       0.4501E-4    -1.004   
    19.14       0.6284E-4    -1.004       0.4483E-4    -1.004   
    19.16       0.6253E-4    -1.004       0.4465E-4    -1.004   
    19.18       0.6222E-4    -1.004       0.4447E-4    -1.003   
    19.20       0.6191E-4    -1.004       0.4429E-4    -1.003   
    19.22       0.6160E-4    -1.004       0.4411E-4    -1.003   
    19.24       0.6129E-4    -1.004       0.4393E-4    -1.003   
    19.26       0.6099E-4    -1.004       0.4375E-4    -1.003   
    19.28       0.6069E-4    -1.004       0.4358E-4    -1.003   
    19.30       0.6039E-4    -1.004       0.4340E-4    -1.003   
    19.32       0.6009E-4    -1.004       0.4323E-4    -1.003   
    19.34       0.5980E-4    -1.004       0.4305E-4    -1.003   
    19.36       0.5951E-4    -1.004       0.4288E-4    -1.003   
    19.38       0.5922E-4    -1.004       0.4271E-4    -1.003   
    19.40       0.5893E-4    -1.004       0.4254E-4    -1.003   
    19.42       0.5864E-4    -1.004       0.4237E-4    -1.003   
    19.44       0.5836E-4    -1.004       0.4220E-4    -1.003   
    19.46       0.5807E-4    -1.004       0.4204E-4    -1.003   
    19.48       0.5779E-4    -1.004       0.4187E-4    -1.003   
    19.50       0.5751E-4    -1.004       0.4171E-4    -1.003   
    19.52       0.5724E-4    -1.004       0.4154E-4    -1.003   
    19.54       0.5696E-4    -1.004       0.4138E-4    -1.003   
    19.56       0.5669E-4    -1.004       0.4122E-4    -1.003   
    19.58       0.5642E-4    -1.004       0.4105E-4    -1.003   
    19.60       0.5615E-4    -1.004       0.4089E-4    -1.003   
    19.62       0.5588E-4    -1.004       0.4073E-4    -1.003   
    19.64       0.5561E-4    -1.004       0.4057E-4    -1.003   
    19.66       0.5535E-4    -1.004       0.4042E-4    -1.003   
    19.68       0.5509E-4    -1.004       0.4026E-4    -1.003   
    19.70       0.5483E-4    -1.004       0.4010E-4    -1.003   
    19.72       0.5457E-4    -1.004       0.3995E-4    -1.003   
    19.74       0.5431E-4    -1.004       0.3979E-4    -1.003   
    19.76       0.5406E-4    -1.004       0.3964E-4    -1.003   
    19.78       0.5380E-4    -1.004       0.3948E-4    -1.003   
    19.80       0.5355E-4    -1.004       0.3933E-4    -1.003   
    19.82       0.5330E-4    -1.004       0.3918E-4    -1.003   
    19.84       0.5305E-4    -1.004       0.3903E-4    -1.003   
    19.86       0.5281E-4    -1.004       0.3888E-4    -1.003   
    19.88       0.5256E-4    -1.004       0.3873E-4    -1.003   
    19.90       0.5232E-4    -1.004       0.3858E-4    -1.003   
    19.92       0.5208E-4    -1.004       0.3843E-4    -1.003   
    19.94       0.5184E-4    -1.004       0.3829E-4    -1.003   
    19.96       0.5160E-4    -1.004       0.3814E-4    -1.003   
    19.98       0.5136E-4    -1.004       0.3800E-4    -1.003   
    20.00       0.5113E-4    -1.004       0.3785E-4    -1.003   
# 
# 04/14/2017 at 11:11 YAMBO_RT @ anomaly [start]
# 04/14/2017 at 11:11                    [end]
#  
# Timing   [Min/Max/Average]: 01s/01s/01s
#
# .-Input file : yambo.in
# | optics                       # [R OPT] Optics
# | bse                          # [R BSE] Bethe Salpeter Equation.
# | bsk                          # [R BSK] Bethe Salpeter Equation kernel
# | bss                          # [R BSS] Bethe Salpeter Equation solver
# | tddft                        # [R   K] Use TDDFT kernel
# | BoseTemp= 0.000000     eV    # Bosonic Temperature
# | X_Threads= 1                 # [OPENMP/X] Number of threads for response functions
# | DIP_Threads= 1               # [OPENMP/X] Number of threads for dipoles
# | K_Threads= 1                 # [OPENMP/BSK] Number of threads for response functions
# | BSEmod= "coupling"           # [BSE] resonant/retarded/coupling
# | BSKmod= "ALDA"               # [BSE] IP/Hartree/HF/ALDA/SEX/BSfxc
# | BSSmod= "d"                  # [BSS] (h)aydock/(d)iagonalization/(i)nversion/(t)ddft`
# | BSENGexx=  39127       RL    # [BSK] Exchange components
# | % BEnRange
# |   0.00000 | 20.00000 | eV    # [BSS] Energy range
# | %
# | % BDmRange
# |   0.10000 |  0.10000 | eV    # [BSS] Damping range
# | %
# | BEnSteps= 1000               # [BSS] Energy steps
# | % BLongDir
# | 0.1000E-4 | 0.000    | 0.000    |        # [BSS] [cc] Electric Field
# | %
# | % BSEBands
# |   1 | 10 |                   # [BSK] Bands range
# | %
