#                                                           
# ooooo   oooo ..     ooo        ooo ooooooooo.    .oooo.   
#  `88.   .8" .88.    `88.       .88 `88"   `Y8b  dP"  `Yb  
#   `88. .8" .8"88.    888b     d"88  88     888 88      88 
#    `88.8" .8" `88.   8 Y88. .P  88  88oooo888" 88      88 
#     `88" .88ooo888.  8  `888"   88  88    `88b 88      88 
#      88 .8"     `88. 8    Y     88  88    .88P `8b    d8" 
#     o88o88o      888o8          88 o88bood8P"   `Ybod8P"  
#                                                           
#                                                           
#                Version 4.0.2 Revision 5431                
#                         MPI Build                         
#                 http://www.yambo-code.org                 
#
# Absorption @ Q(1) [q->0 direction] :0.1000E-4  0.000     0.000   
#
#
# - Energies      are Teter 93(XC)+Scissor
# - Wavefunctions are Teter 93(XC)
#
# - The Green`s function is causal -
# - Using the Length Gauge -
# - [r,Vnl] *is* included -
#
#   BSK|Identifier              :2197
#      |Dimension               :16
#      |Bands                   :7 - 10
#      |Exchange           [res]: yes
#      |Correlation        [res]: yes
#      |Kernel`s coupling       : yes
#      |Exchange           [cpl]: yes
#      |Correlation        [cpl]: no
#      |W interaction is bare   : no
#      |ALDA kernel in R-space  : no
#      |RL vectors    [exchange]:3413
#      |RL vectors [correlation]:107
#      |E/h energy range    [ev]:-1.000000 - -1.000000
#      |Coupling range     [o/o]: 100.0000 -  100.0000
#    W |Interaction is diagonal : no
#      |Matrix size             :107
#      |Bands                   :1 - 50
#      |e/h energy range    [ev]:-1.000000 - -1.000000
#      |Poles              [o/o]: 100.0000
#      |RL vectors in the sum   :3317
#      |[r,Vnl] included        : yes
#      |Field direction         :0.1000E-4  0.000000  0.000000
#      |Coulomb Cutoff          :none
#      |xc-Kernel               :none
#   RIM|RL components      [col]:0
#      |Random points      [col]:0
#
#  E/ev[1]    EPS-Im[2]  EPS-Re[3]  EPSo-Im[4] EPSo-Re[5]
#
   3.00000    0.16665    8.25938    0.07230    6.38285
   3.01000    0.16797    8.27607    0.07273    6.39010
   3.02000    0.16932    8.29289    0.07317    6.39738
   3.03000    0.17067    8.30984    0.07362    6.40471
   3.04000    0.17204    8.32693    0.07406    6.41209
   3.05000    0.17342    8.34416    0.07451    6.41951
   3.06000    0.17481    8.36152    0.07496    6.42697
   3.07000    0.17622    8.37903    0.07542    6.43448
   3.08000    0.17764    8.39667    0.07588    6.44203
   3.09000    0.17908    8.41446    0.07634    6.44963
   3.10000    0.18053    8.43239    0.07680    6.45728
   3.11000    0.18200    8.45047    0.07727    6.46497
   3.12000    0.18348    8.46869    0.07773    6.47271
   3.13000    0.18498    8.48706    0.07821    6.48050
   3.14000    0.18649    8.50558    0.07868    6.48833
   3.15000    0.18802    8.52426    0.07916    6.49622
   3.16000    0.18957    8.54308    0.07964    6.50415
   3.17000    0.19113    8.56206    0.08013    6.51212
   3.18000    0.19271    8.58120    0.08062    6.52015
   3.19000    0.19430    8.60049    0.08111    6.52823
   3.20000    0.19591    8.61995    0.08160    6.53635
   3.21000    0.19754    8.63956    0.08210    6.54452
   3.22000    0.19919    8.65934    0.08260    6.55275
   3.23000    0.20085    8.67928    0.08311    6.56102
   3.24000    0.20253    8.69939    0.08362    6.56935
   3.25000    0.20423    8.71967    0.08413    6.57772
   3.26000    0.20595    8.74012    0.08465    6.58615
   3.27000    0.20769    8.76073    0.08516    6.59463
   3.28000    0.20945    8.78152    0.08569    6.60316
   3.29000    0.21122    8.80249    0.08621    6.61174
   3.30000    0.21302    8.82364    0.08674    6.62038
   3.31000    0.21483    8.84496    0.08728    6.62907
   3.32000    0.21667    8.86647    0.08782    6.63781
   3.33000    0.21853    8.88816    0.08836    6.64660
   3.34000    0.22041    8.91004    0.08890    6.65545
   3.35000    0.22230    8.93210    0.08945    6.66436
   3.36000    0.22423    8.95436    0.09000    6.67332
   3.37000    0.22617    8.97680    0.09056    6.68233
   3.38000    0.22813    8.99944    0.09112    6.69140
   3.39000    0.23012    9.02227    0.09169    6.70053
   3.40000    0.23213    9.04531    0.09225    6.70971
   3.41000    0.23417    9.06855    0.09283    6.71895
   3.42000    0.23622    9.09199    0.09340    6.72825
   3.43000    0.23831    9.11563    0.09399    6.73761
   3.44000    0.24041    9.13949    0.09457    6.74702
   3.45000    0.24255    9.16355    0.09516    6.75649
   3.46000    0.24470    9.18783    0.09576    6.76602
   3.47000    0.24689    9.21232    0.09635    6.77562
   3.48000    0.24910    9.23703    0.09696    6.78527
   3.49000    0.25133    9.26196    0.09756    6.79498
   3.50000    0.25359    9.28711    0.09818    6.80475
   3.51000    0.25588    9.31250    0.09879    6.81458
   3.52000    0.25820    9.33811    0.09941    6.82448
  3.530000   0.260550   9.363949   0.100040   6.834433
  3.540000   0.262927   9.390022   0.100671   6.844453
  3.550000   0.265332   9.416338   0.101306   6.854536
  3.560000   0.267767   9.442891   0.101946   6.864682
  3.570000   0.270233   9.469690   0.102591   6.874893
  3.580000   0.272730   9.496731   0.103241   6.885167
  3.590000   0.275259   9.524025   0.103896   6.895508
  3.600000   0.277819   9.551571   0.104556   6.905913
  3.610000   0.280412   9.579372   0.105221   6.916385
  3.620000   0.283039   9.607433   0.105891   6.926924
  3.630000   0.285699   9.635756   0.106567   6.937528
  3.640000   0.288394   9.664346   0.107248   6.948201
  3.650000   0.291123   9.693202   0.107934   6.958942
  3.660000   0.293888   9.722333   0.108625   6.969753
  3.670000   0.296690   9.751740   0.109322   6.980632
  3.680000   0.299528   9.781425   0.110024   6.991580
  3.690000   0.302404   9.811396   0.110732   7.002599
  3.700000   0.305318   9.841652   0.111446   7.013689
  3.710000   0.308271   9.872198   0.112165   7.024851
  3.720000   0.311264   9.903043   0.112890   7.036084
  3.730000   0.314297   9.934185   0.113621   7.047390
  3.740000   0.317371   9.965628   0.114358   7.058770
  3.750000   0.320487   9.997380   0.115101   7.070222
   3.76000    0.32365   10.02944    0.11585    7.08175
   3.77000    0.32685   10.06182    0.11660    7.09335
   3.78000    0.33009   10.09452    0.11737    7.10503
   3.79000    0.33339   10.12754    0.11813    7.11678
   3.80000    0.33672   10.16089    0.11891    7.12861
   3.81000    0.34011   10.19457    0.11969    7.14052
   3.82000    0.34354   10.22859    0.12047    7.15251
   3.83000    0.34702   10.26296    0.12127    7.16457
   3.84000    0.35055   10.29767    0.12207    7.17672
   3.85000    0.35413   10.33273    0.12287    7.18894
   3.86000    0.35776   10.36815    0.12369    7.20125
   3.87000    0.36145   10.40394    0.12451    7.21363
   3.88000    0.36519   10.44009    0.12533    7.22610
   3.89000    0.36898   10.47661    0.12617    7.23865
   3.90000    0.37283   10.51351    0.12701    7.25129
   3.91000    0.37673   10.55080    0.12786    7.26401
   3.92000    0.38070   10.58847    0.12871    7.27681
   3.93000    0.38472   10.62655    0.12957    7.28970
   3.94000    0.38880   10.66502    0.13044    7.30268
   3.95000    0.39294   10.70389    0.13132    7.31574
   3.96000    0.39715   10.74319    0.13221    7.32889
   3.97000    0.40142   10.78290    0.13310    7.34213
   3.98000    0.40576   10.82304    0.13400    7.35546
   3.99000    0.41016   10.86361    0.13491    7.36888
   4.00000    0.41463   10.90461    0.13583    7.38239
   4.01000    0.41917   10.94607    0.13675    7.39599
   4.02000    0.42378   10.98798    0.13769    7.40968
   4.03000    0.42847   11.03034    0.13863    7.42347
   4.04000    0.43323   11.07318    0.13958    7.43735
   4.05000    0.43806   11.11648    0.14054    7.45133
   4.06000    0.44297   11.16028    0.14151    7.46540
   4.07000    0.44796   11.20456    0.14248    7.47957
   4.08000    0.45303   11.24933    0.14347    7.49384
   4.09000    0.45819   11.29462    0.14446    7.50821
   4.10000    0.46342   11.34041    0.14546    7.52267
   4.11000    0.46875   11.38672    0.14647    7.53724
   4.12000    0.47416   11.43357    0.14750    7.55191
   4.13000    0.47966   11.48096    0.14853    7.56668
   4.14000    0.48525   11.52889    0.14957    7.58155
   4.15000    0.49094   11.57738    0.15062    7.59652
   4.16000    0.49672   11.62644    0.15168    7.61161
   4.17000    0.50260   11.67607    0.15275    7.62679
   4.18000    0.50859   11.72629    0.15383    7.64209
   4.19000    0.51467   11.77710    0.15492    7.65749
   4.20000    0.52086   11.82852    0.15602    7.67300
   4.21000    0.52716   11.88056    0.15713    7.68863
   4.22000    0.53357   11.93322    0.15825    7.70436
   4.23000    0.54009   11.98652    0.15938    7.72021
   4.24000    0.54673   12.04047    0.16053    7.73616
   4.25000    0.55349   12.09508    0.16168    7.75224
   4.26000    0.56037   12.15036    0.16285    7.76843
   4.27000    0.56737   12.20632    0.16402    7.78473
   4.28000    0.57450   12.26298    0.16521    7.80115
   4.29000    0.58176   12.32035    0.16641    7.81770
   4.30000    0.58915   12.37844    0.16762    7.83436
   4.31000    0.59668   12.43727    0.16884    7.85114
   4.32000    0.60435   12.49684    0.17008    7.86805
   4.33000    0.61216   12.55718    0.17133    7.88507
   4.34000    0.62012   12.61829    0.17259    7.90223
   4.35000    0.62824   12.68020    0.17386    7.91951
   4.36000    0.63650   12.74290    0.17515    7.93692
   4.37000    0.64493   12.80644    0.17645    7.95445
   4.38000    0.65352   12.87080    0.17776    7.97212
   4.39000    0.66228   12.93602    0.17908    7.98991
   4.40000    0.67121   13.00211    0.18042    8.00784
   4.41000    0.68031   13.06909    0.18177    8.02591
   4.42000    0.68960   13.13696    0.18314    8.04411
   4.43000    0.69907   13.20577    0.18452    8.06244
   4.44000    0.70874   13.27551    0.18591    8.08092
   4.45000    0.71860   13.34621    0.18732    8.09953
   4.46000    0.72866   13.41788    0.18875    8.11828
   4.47000    0.73893   13.49056    0.19019    8.13718
   4.48000    0.74941   13.56425    0.19164    8.15622
   4.49000    0.76011   13.63898    0.19311    8.17541
   4.50000    0.77103   13.71477    0.19459    8.19474
   4.51000    0.78219   13.79164    0.19609    8.21422
   4.52000    0.79358   13.86962    0.19761    8.23385
   4.53000    0.80522   13.94873    0.19914    8.25363
   4.54000    0.81711   14.02898    0.20069    8.27357
   4.55000    0.82926   14.11042    0.20226    8.29366
   4.56000    0.84168   14.19306    0.20384    8.31391
   4.57000    0.85437   14.27692    0.20544    8.33431
   4.58000    0.86734   14.36204    0.20706    8.35488
   4.59000    0.88060   14.44845    0.20870    8.37561
   4.60000    0.89417   14.53616    0.21035    8.39650
   4.61000    0.90804   14.62521    0.21202    8.41756
   4.62000    0.92223   14.71564    0.21371    8.43878
   4.63000    0.93675   14.80746    0.21542    8.46017
   4.64000    0.95161   14.90072    0.21715    8.48174
   4.65000    0.96681   14.99545    0.21890    8.50347
   4.66000    0.98238   15.09168    0.22066    8.52538
   4.67000    0.99832   15.18944    0.22245    8.54747
   4.68000    1.01464   15.28877    0.22426    8.56974
   4.69000    1.03136   15.38972    0.22609    8.59219
   4.70000    1.04849   15.49231    0.22794    8.61482
   4.71000    1.06604   15.59659    0.22981    8.63763
   4.72000    1.08402   15.70260    0.23170    8.66064
   4.73000    1.10246   15.81038    0.23362    8.68383
   4.74000    1.12136   15.91997    0.23555    8.70721
   4.75000    1.14075   16.03142    0.23751    8.73079
   4.76000    1.16063   16.14478    0.23950    8.75456
   4.77000    1.18103   16.26009    0.24150    8.77853
   4.78000    1.20196   16.37741    0.24353    8.80270
   4.79000    1.22345   16.49678    0.24559    8.82708
   4.80000    1.24551   16.61826    0.24767    8.85166
   4.81000    1.26816   16.74191    0.24977    8.87644
   4.82000    1.29142   16.86778    0.25190    8.90144
   4.83000    1.31532   16.99593    0.25405    8.92665
   4.84000    1.33988   17.12642    0.25624    8.95208
   4.85000    1.36513   17.25931    0.25844    8.97772
   4.86000    1.39108   17.39468    0.26068    9.00359
   4.87000    1.41777   17.53258    0.26294    9.02967
   4.88000    1.44523   17.67310    0.26523    9.05599
   4.89000    1.47348   17.81629    0.26755    9.08253
   4.90000    1.50255   17.96225    0.26990    9.10931
   4.91000    1.53249   18.11104    0.27228    9.13632
   4.92000    1.56331   18.26275    0.27469    9.16356
   4.93000    1.59506   18.41746    0.27712    9.19105
   4.94000    1.62778   18.57528    0.27959    9.21878
   4.95000    1.66150   18.73627    0.28210    9.24676
   4.96000    1.69627   18.90054    0.28463    9.27499
   4.97000    1.73212   19.06819    0.28719    9.30347
   4.98000    1.76911   19.23932    0.28979    9.33220
   4.99000    1.80729   19.41403    0.29243    9.36120
   5.00000    1.84670   19.59245    0.29509    9.39046
   5.01000    1.88740   19.77469    0.29780    9.41998
   5.02000    1.92944   19.96086    0.30054    9.44978
   5.03000    1.97289   20.15109    0.30331    9.47985
   5.04000    2.01780   20.34553    0.30612    9.51020
   5.05000    2.06425   20.54429    0.30897    9.54082
   5.06000    2.11230   20.74753    0.31186    9.57174
   5.07000    2.16203   20.95540    0.31479    9.60293
   5.08000    2.21352   21.16804    0.31775    9.63443
   5.09000    2.26686   21.38564    0.32076    9.66622
   5.10000    2.32212   21.60835    0.32381    9.69831
   5.11000    2.37941   21.83635    0.32690    9.73070
   5.12000    2.43883   22.06983    0.33003    9.76340
   5.13000    2.50047   22.30899    0.33321    9.79641
   5.14000    2.56446   22.55403    0.33643    9.82974
   5.15000    2.63091   22.80516    0.33970    9.86340
   5.16000    2.69996   23.06260    0.34301    9.89738
   5.17000    2.77174   23.32662    0.34637    9.93169
   5.18000    2.84638   23.59742    0.34978    9.96633
   5.19000    2.92406   23.87528    0.35323   10.00132
   5.20000    3.00493   24.16048    0.35674   10.03665
   5.21000    3.08917   24.45329    0.36030   10.07233
   5.22000    3.17698   24.75401    0.36391   10.10836
   5.23000    3.26855   25.06296    0.36757   10.14476
   5.24000    3.36410   25.38049    0.37128   10.18152
   5.25000    3.46387   25.70691    0.37505   10.21865
   5.26000    3.56811   26.04264    0.37888   10.25615
   5.27000    3.67708   26.38801    0.38277   10.29404
   5.28000    3.79109   26.74346    0.38671   10.33232
   5.29000    3.91044   27.10940    0.39071   10.37099
   5.30000    4.03547   27.48629    0.39477   10.41006
   5.31000    4.16655   27.87462    0.39890   10.44953
   5.32000    4.30407   28.27486    0.40309   10.48941
   5.33000    4.44847   28.68755    0.40734   10.52972
   5.34000    4.60019   29.11324    0.41166   10.57044
   5.35000    4.75974   29.55252    0.41604   10.61160
   5.36000    4.92765   30.00598    0.42050   10.65319
   5.37000    5.10449   30.47426    0.42502   10.69523
   5.38000    5.29089   30.95806    0.42962   10.73772
   5.39000    5.48750   31.45806    0.43429   10.78067
   5.40000    5.69502   31.97503    0.43904   10.82408
   5.41000    5.91419   32.50977    0.44386   10.86796
   5.42000    6.14582   33.06318    0.44876   10.91233
   5.43000    6.39075   33.63622    0.45374   10.95718
   5.44000    6.64993   34.22997    0.45880   11.00253
   5.45000    6.92442   34.84560    0.46395   11.04839
   5.46000    7.21545   35.48443    0.46918   11.09475
   5.47000    7.52442   36.14786    0.47449   11.14164
   5.48000    7.85294   36.83733    0.47990   11.18906
   5.49000    8.20283   37.55439    0.48540   11.23701
   5.50000    8.57613   38.30059    0.49099   11.28551
   5.51000    8.97509   39.07751    0.49668   11.33457
   5.52000    9.40219   39.88689    0.50246   11.38420
   5.53000    9.86011   40.73040    0.50835   11.43440
   5.54000   10.35187   41.60993    0.51434   11.48519
   5.55000   10.88079   42.52745    0.52043   11.53657
   5.56000   11.45059   43.48503    0.52663   11.58856
   5.57000   12.06542   44.48490    0.53294   11.64116
   5.58000   12.72995   45.52936    0.53936   11.69439
   5.59000   13.44947   46.62083    0.54590   11.74827
   5.60000   14.22992   47.76186    0.55256   11.80278
   5.61000   15.07812   48.95511    0.55933   11.85797
   5.62000   16.00167   50.20312    0.56624   11.91383
   5.63000   17.00936   51.50861    0.57326   11.97037
   5.64000   18.11118   52.87415    0.58042   12.02761
   5.65000   19.31855   54.30222    0.58771   12.08556
   5.66000   20.64458   55.79498    0.59514   12.14424
   5.67000   22.10430   57.35419    0.60271   12.20366
   5.68000   23.71501   58.98098    0.61042   12.26382
   5.69000   25.49661   60.67548    0.61828   12.32475
   5.70000   27.47202   62.43650    0.62630   12.38647
   5.71000   29.66770   64.26093    0.63446   12.44898
   5.72000   32.11403   66.14300    0.64279   12.51230
   5.73000   34.84601   68.07337    0.65128   12.57644
   5.74000   37.90366   70.03764    0.65994   12.64143
   5.75000   41.33255   72.01482    0.66877   12.70728
   5.76000   45.18407   73.97485    0.67778   12.77400
   5.77000   49.51538   75.87571    0.68698   12.84162
   5.78000   54.38878   77.65944    0.69635   12.91014
   5.79000   59.86980   79.24757    0.70593   12.97960
   5.80000   66.02386   80.53506    0.71570   13.05001
   5.81000   72.91006   81.38405    0.72567   13.12138
   5.82000   80.57121   81.61690    0.73585   13.19374
   5.83000   89.01871   81.01121    0.74625   13.26711
   5.84000   98.21097   79.29846    0.75687   13.34152
    5.8500   108.0253    76.1717     0.7677    13.4170
    5.8600   118.2261    71.3070     0.7788    13.4935
    5.8700   128.4359    64.4060     0.7901    13.5711
    5.8800   138.1220    55.2634     0.8017    13.6499
    5.8900   146.6206    43.8486     0.8135    13.7297
    5.9000   153.2092    30.3862     0.8256    13.8108
    5.9100   157.2310    15.3953     0.8380    13.8930
    5.9200   158.2412    -0.3462     0.8506    13.9765
    5.9300   156.1228   -15.9209     0.8635    14.0612
    5.9400   151.1188   -30.4431     0.8768    14.1472
    5.9500   143.7658   -43.2179     0.8903    14.2345
    5.9600   134.7605   -53.8322     0.9041    14.3232
    5.9700   124.8171   -62.1590     0.9183    14.4132
    5.9800   114.5579   -68.3018     0.9328    14.5046
    5.9900   104.4599   -72.5086     0.9477    14.5974
   6.00000   94.84750  -75.09293    0.96291   14.69172
   6.01000   85.91234  -76.37635    0.97850   14.78752
   6.02000   77.74451  -76.65372    0.99447   14.88485
   6.03000   70.36380  -76.17735    1.01084   14.98376
   6.04000   63.74543  -75.15326    1.02762   15.08428
   6.05000   57.83931  -73.74409    1.04482   15.18645
   6.06000   52.58319  -72.07525    1.06246   15.29031
   6.07000   47.91106  -70.24156    1.08055   15.39590
   6.08000   43.75822  -68.31357    1.09912   15.50327
   6.09000   40.06413  -66.34296    1.11816   15.61247
   6.10000   36.77361  -64.36713    1.13772   15.72353
   6.11000   33.83735  -62.41260    1.15779   15.83652
   6.12000   31.21183  -60.49779    1.17840   15.95147
   6.13000   28.85889  -58.63506    1.19957   16.06844
   6.14000   26.74523  -56.83241    1.22132   16.18749
   6.15000   24.84192  -55.09450    1.24368   16.30866
   6.16000   23.12383  -53.42372    1.26666   16.43203
   6.17000   21.56917  -51.82071    1.29028   16.55764
   6.18000   20.15899  -50.28493    1.31458   16.68556
   6.19000   18.87685  -48.81504    1.33959   16.81585
   6.20000   17.70842  -47.40908    1.36532   16.94858
   6.21000   16.64123  -46.06473    1.39180   17.08382
   6.22000   15.66439  -44.77953    1.41907   17.22165
   6.23000   14.76831  -43.55074    1.44717   17.36214
   6.24000   13.94472  -42.37581    1.47611   17.50535
   6.25000   13.18622  -41.25207    1.50594   17.65138
   6.26000   12.48634  -40.17687    1.53670   17.80031
   6.27000   11.83937  -39.14771    1.56842   17.95222
   6.28000   11.24024  -38.16218    1.60114   18.10722
   6.29000   10.68449  -37.21795    1.63492   18.26538
   6.30000   10.16812  -36.31281    1.66978   18.42682
   6.31000    9.68758  -35.44467    1.70580   18.59162
   6.32000    9.23970  -34.61154    1.74300   18.75992
   6.33000    8.82166  -33.81160    1.78146   18.93180
   6.34000    8.43093  -33.04306    1.82122   19.10739
   6.35000    8.06521  -32.30427    1.86235   19.28680
   6.36000    7.72247  -31.59366    1.90491   19.47018
   6.37000    7.40084  -30.90977    1.94897   19.65764
   6.38000    7.09866  -30.25122    1.99460   19.84933
   6.39000    6.81442  -29.61673    2.04188   20.04540
   6.40000    6.54676  -29.00507    2.09089   20.24599
   6.41000    6.29442  -28.41510    2.14171   20.45126
   6.42000    6.05628  -27.84574    2.19445   20.66138
   6.43000    5.83132  -27.29598    2.24919   20.87652
   6.44000    5.61859  -26.76488    2.30604   21.09687
   6.45000    5.41723  -26.25154    2.36512   21.32262
   6.46000    5.22647  -25.75511    2.42653   21.55397
   6.47000    5.04558  -25.27480    2.49042   21.79112
   6.48000    4.87391  -24.80988    2.55691   22.03430
   6.49000    4.71085  -24.35962    2.62615   22.28374
   6.50000    4.55584  -23.92337    2.69830   22.53970
   6.51000    4.40838  -23.50050    2.77353   22.80241
   6.52000    4.26798  -23.09042    2.85200   23.07216
   6.53000    4.13422  -22.69256    2.93393   23.34923
   6.54000    4.00669  -22.30641    3.01950   23.63392
   6.55000    3.88501  -21.93146    3.10896   23.92654
   6.56000    3.76884  -21.56722    3.20253   24.22744
   6.57000    3.65787  -21.21325    3.30048   24.53696
   6.58000    3.55179  -20.86915    3.40308   24.85548
   6.59000    3.45032  -20.53448    3.51065   25.18339
   6.60000    3.35322  -20.20889    3.62351   25.52111
   6.61000    3.26023  -19.89198    3.74202   25.86908
   6.62000    3.17114  -19.58341    3.86656   26.22779
   6.63000    3.08575  -19.28289    3.99756   26.59768
   6.64000    3.00386  -18.99009    4.13547   26.97931
   6.65000    2.92528  -18.70470    4.28079   27.37321
   6.66000    2.84985  -18.42644    4.43406   27.78000
   6.67000    2.77741  -18.15505    4.59589   28.20029
   6.68000    2.70781  -17.89027    4.76693   28.63475
   6.69000    2.64091  -17.63185    4.94789   29.08407
   6.70000    2.57659  -17.37955    5.13956   29.54902
   6.71000    2.51472  -17.13316    5.34281   30.03038
   6.72000    2.45519  -16.89246    5.55859   30.52900
   6.73000    2.39789  -16.65725    5.78795   31.04578
   6.74000    2.34272  -16.42732    6.03207   31.58167
   6.75000    2.28959  -16.20250    6.29223   32.13768
   6.76000    2.23841  -15.98260    6.56987   32.71489
   6.77000    2.18910  -15.76744    6.86659   33.31445
   6.78000    2.14157  -15.55687    7.18418   33.93757
   6.79000    2.09576  -15.35073    7.52461   34.58551
   6.80000    2.05160  -15.14885    7.89014   35.25964
   6.81000    2.00903  -14.95110    8.28324   35.96138
   6.82000    1.96797  -14.75735    8.70675   36.69221
   6.83000    1.92839  -14.56742    9.16382   37.45370
   6.84000    1.89022  -14.38123    9.65806   38.24749
   6.85000    1.85342  -14.19862   10.19350   39.07522
   6.86000    1.81794  -14.01948   10.77477   39.93861
   6.87000    1.78373  -13.84368   11.40708   40.83937
   6.88000    1.75078  -13.67111   12.09643   41.77916
   6.89000    1.71902  -13.50167   12.84963   42.75962
   6.90000    1.68844  -13.33525   13.67449   43.78220
   6.91000    1.65901  -13.17173   14.57996   44.84812
   6.92000    1.63069  -13.01101   15.57635   45.95825
   6.93000    1.60347  -12.85301   16.67547   47.11290
   6.94000    1.57732  -12.69761   17.89097   48.31161
   6.95000    1.55223  -12.54473   19.23853   49.55283
   6.96000    1.52818  -12.39428   20.73620   50.83349
   6.97000    1.50517  -12.24615   22.40475   52.14840
   6.98000    1.48319  -12.10026   24.26806   53.48965
   6.99000    1.46223  -11.95654   26.35291   54.84512
   7.00000    1.44230  -11.81488   28.68993   56.19777
   7.01000    1.42341  -11.67521   31.31315   57.52352
   7.02000    1.40555  -11.53744   34.25966   58.78905
   7.03000    1.38876  -11.40149   37.56869   59.94906
   7.04000    1.37306  -11.26728   41.27961   60.94281
   7.05000    1.35846  -11.13473   45.42849   61.69027
   7.06000    1.34502  -11.00375   50.04234   62.08815
   7.07000    1.33276  -10.87428   55.13040   62.00667
   7.08000    1.32176  -10.74622   60.67163   61.28849
   7.09000    1.31206  -10.61952   66.59835   59.75265
   7.10000    1.30375  -10.49410   72.77716   57.20659
   7.11000    1.29692  -10.36989   78.99139   53.47041
   7.12000    1.29168  -10.24682   84.93231   48.41510
   7.13000    1.28814  -10.12485   90.21037   42.01188
   7.14000    1.28646  -10.00392   94.39595   34.38040
   7.15000    1.28681   -9.88401   97.09129   25.81536
   7.16000    1.28939   -9.76508   98.01778   16.76980
   7.17000    1.29441   -9.64716   97.08772    7.78778
   7.18000    1.30214   -9.53028   94.42897   -0.59619
   7.19000    1.31288   -9.41452   90.34999   -7.95411
   7.20000    1.32696   -9.30002   85.26273  -14.02310
   7.21000    1.34474   -9.18699   79.59617  -18.71310
   7.22000    1.36662   -9.07575   73.72942  -22.07459
   7.23000    1.39300   -8.96673   67.95695  -24.24879
   7.24000    1.42428   -8.86053   62.48182  -25.41979
   7.25000    1.46078   -8.75792   57.42678  -25.77887
   7.26000    1.50272   -8.65989   52.85268  -25.50262
   7.27000    1.55007   -8.56765   48.77729  -24.74275
   7.28000    1.60248   -8.48256   45.19102  -23.62334
   7.29000    1.65911   -8.40606   42.06881  -22.24240
   7.30000    1.71857   -8.33948   39.37828  -20.67543
   7.31000    1.77886   -8.28371   37.08518  -18.97939
   7.32000    1.83754   -8.23891   35.15651  -17.19661
   7.33000    1.89212   -8.20422   33.56237  -15.35803
   7.34000    1.94057   -8.17772   32.27743  -13.48654
   7.35000    1.98196   -8.15673   31.28056  -11.59844
   7.36000    2.01677   -8.13844   30.55558   -9.70586
   7.37000    2.04684   -8.12074   30.09103   -7.81813
   7.38000    2.07484   -8.10284   29.88016   -5.94313
   7.39000    2.10353   -8.08560   29.92079   -4.08845
   7.40000    2.13496   -8.07135   30.21521   -2.26254
   7.41000    2.16976   -8.06353   30.77009   -0.47597
   7.42000    2.20676   -8.06592   31.59622    1.25726
   7.43000    2.24283   -8.08186   32.70822    2.91809
   7.44000    2.27310   -8.11330   34.12384    4.48048
   7.45000    2.29165   -8.15997   35.86285    5.90915
   7.46000    2.29260   -8.21893   37.94494    7.15698
   7.47000    2.27149   -8.28465   40.38659    8.16212
   7.48000    2.22644   -8.34999   43.19595    8.84539
   7.49000    2.15864   -8.40760   46.36539    9.10859
   7.50000    2.07200   -8.45140   49.86145    8.83525
   7.51000    1.97206   -8.47755   53.61223    7.89580
   7.52000    1.86479   -8.48466   57.49422    6.15988
   7.53000    1.75555   -8.47339   61.32226    3.51798
   7.54000    1.64853   -8.44576   64.84949   -0.08753
   7.55000    1.54661   -8.40446   67.78481   -4.62731
   7.56000    1.45150   -8.35233   69.83239   -9.95710
   7.57000    1.36401   -8.29197   70.74905  -15.81304
   7.58000    1.28428   -8.22566   70.40224  -21.84130
   7.59000    1.21207   -8.15524   68.80528  -27.65894
   7.60000    1.14689   -8.08218   66.11339  -32.92571
   7.61000    1.08813   -8.00762   62.58208  -37.40000
   7.62000    1.03516   -7.93240   58.50756  -40.96151
   7.63000    0.98736   -7.85715   54.17190  -43.60083
   7.64000    0.94414   -7.78232   49.80758  -45.38898
   7.65000    0.90497   -7.70823   45.58413  -46.44232
   7.66000    0.86938   -7.63513   41.61051  -46.89323
   7.67000    0.83693   -7.56315   37.94624  -46.87032
   7.68000    0.80726   -7.49237   34.61431  -46.48763
   7.69000    0.78006   -7.42288   31.61438  -45.84069
   7.70000    0.75503   -7.35469   28.93063  -45.00619
   7.71000    0.73192   -7.28781   26.53970  -44.04390
   7.72000    0.71053   -7.22222   24.41497  -42.99945
   7.73000    0.69067   -7.15790   22.52936  -41.90699
   7.74000    0.67218   -7.09483   20.85704  -40.79171
   7.75000    0.65491   -7.03297   19.37427  -39.67191
   7.76000    0.63874   -6.97229   18.05976  -38.56070
   7.77000    0.62356   -6.91275   16.89480  -37.46727
   7.78000    0.60928   -6.85432   15.86312  -36.39803
   7.79000    0.59581   -6.79695   14.95079  -35.35730
   7.80000    0.58307   -6.74061   14.14595  -34.34801
   7.81000    0.57101   -6.68527   13.43865  -33.37217
   7.82000    0.55956   -6.63089   12.82060  -32.43125
   7.83000    0.54867   -6.57743   12.28500  -31.52660
   7.84000    0.53830   -6.52487   11.82631  -30.65968
   7.85000    0.52840   -6.47317   11.44000  -29.83238
   7.86000    0.51894   -6.42231   11.12231  -29.04736
   7.87000    0.50988   -6.37226   10.86987  -28.30823
   7.88000    0.50120   -6.32299   10.67919  -27.61989
   7.89000    0.49286   -6.27447   10.54609  -26.98862
   7.90000    0.48484   -6.22668   10.46478  -26.42204
   7.91000    0.47713   -6.17961   10.42690  -25.92871
   7.92000    0.46970   -6.13322   10.42049  -25.51719
   7.93000    0.46253   -6.08750   10.42922  -25.19433
   7.94000    0.45560   -6.04243   10.43250  -24.96297
   7.95000    0.44891   -5.99798   10.40678  -24.81929
   7.96000    0.44243   -5.95415   10.32870  -24.75086
   7.97000    0.43616   -5.91091   10.17936  -24.73647
   7.98000    0.43009   -5.86825    9.94852  -24.74857
   7.99000    0.42419   -5.82615    9.63705  -24.75792
   8.00000    0.41847   -5.78460    9.25630  -24.73895
# 
# 02/25/2016 at 13:34 YAMBO_RT @ anomaly [start]
# 02/25/2016 at 13:34                    [end]
#  
# Timing   [Min/Max/Average]: 02s/02s/02s
#
# .-Input file : yambo.in
# | optics                       # [R OPT] Optics
# | bse                          # [R BSE] Bethe Salpeter Equation.
# | bsk                          # [R BSK] Bethe Salpeter Equation kernel
# | bss                          # [R BSS] Bethe Salpeter Equation solver
# | em1s                         # [R Xs] Static Inverse Dielectric Matrix
# | BoseTemp= 0.000000     eV    # Bosonic Temperature
# | FFTGvecs=  3317        RL    # [FFT] Plane-waves
# | X_all_q_nCPU_invert= 1       # [PARALLEL] CPUs for matrix inversion
# | BS_nCPU_invert= 1            # [PARALLEL] CPUs for matrix inversion
# | BS_nCPU_diago= 1             # [PARALLEL] CPUs for matrix diagonalization
# | Chimod= "Hartree"            # [X] IP/Hartree/ALDA/LRC/BSfxc
# | BSEmod= "coupling"           # [BSE] resonant/causal/coupling
# | BSKmod= "SEX"                # [BSE] IP/Hartree/HF/ALDA/SEX/BSfxc
# | BSSmod= "d"                  # [BSS] (h)aydock/(d)iagonalization/(i)nversion/(t)ddft`
# | BSENGexx=  3413        RL    # [BSK] Exchange components
# | BSENGBlk= 107          RL    # [BSK] Screened interaction block size
# | % KfnQP_E
# |  1.500000 | 1.000000 | 1.000000 |        # [EXTQP BSK BSS] E parameters  (c/v) eV|adim|adim
# | %
# | Gauge= "length"              # [BSE] Gauge (length|velocity)
# | % BEnRange
# |  3.000000 | 8.000000 | eV    # [BSS] Energy range
# | %
# | % BDmRange
# |   0.10000 |  0.10000 | eV    # [BSS] Damping range
# | %
# | BEnSteps=  501               # [BSS] Energy steps
# | % BLongDir
# | 0.1000E-4 | 0.000    | 0.000    |        # [BSS] [cc] Electric Field
# | %
# | % BSEBands
# |   7 | 10 |                   # [BSK] Bands range
# | %
# | % BndsRnXs
# |    1 |  50 |                 # [Xs] Polarization function bands
# | %
# | NGsBlkXs= 107          RL    # [Xs] Response block size
# | % DmRngeXs
# | 0.1000E-2 |0.1000E-2 | eV    # [Xs] Damping range
# | %
# | % LongDrXs
# | 0.1000E-4 | 0.000    | 0.000    |        # [Xs] [cc] Electric Field
# | %
