#                                                           
#  /$$     /$$ /$$$$$$  /$$      /$$ /$$$$$$$   /$$$$$$     
# |  $$   /$$//$$__  $$| $$$    /$$$| $$__  $$ /$$__  $$    
#  \  $$ /$$/| $$  \ $$| $$$$  /$$$$| $$  \ $$| $$  \ $$    
#   \  $$$$/ | $$$$$$$$| $$ $$/$$ $$| $$$$$$$ | $$  | $$    
#    \  $$/  | $$__  $$| $$  $$$| $$| $$__  $$| $$  | $$    
#     | $$   | $$  | $$| $$\  $ | $$| $$  \ $$| $$  | $$    
#     | $$   | $$  | $$| $$ \/  | $$| $$$$$$$/|  $$$$$$/    
#     |__/   |__/  |__/|__/     |__/|_______/  \______/     
#                                                           
#              Version 3.3.1 Revision 2093                  
#               http://www.yambo-code.org                   
#
# Absorption @ Q(1) [q->0 direction] :0.1000E-4  0.000     0.000   
#
#
# - Energies      are +AMGB (for 2D systems)(C)+Scissor
# - Wavefunctions are +AMGB (for 2D systems)(C)
#
# - The Green`s function is resonant -
# - Using Shifted Grids -
# - [r,Vnl] *is* included -
#
#   BSK|Identifier              :8450
#      |Dimension               :80
#      |Bands                   :1 - 2
#      |Exchange           [res]: yes
#      |Correlation        [res]: yes
#      |Kernel`s coupling       : no
#      |Exchange           [cpl]: no
#      |W interaction is bare   : no
#      |Correlation        [cpl]: no
#      |ALDA kernel in R-space  : no
#      |RL vectors    [exchange]:8493
#      |RL vectors [correlation]:111
#      |E/h energy range    [ev]:-1.000000 - -1.000000
#      |Coupling range     [o/o]: 100.0000 -  100.0000
#    W |Interaction is diagonal : no
#      |Matrix size             :119
#      |Bands                   :1 - 2
#      |e/h energy range    [ev]:-1.000000 - -1.000000
#      |Poles              [o/o]: 100.0000
#      |Rl vectors in the sum   :8493
#      |[r,Vnl] included        : yes
#      |Field direction         :0.1000E-4  0.000000  0.000000
#      |Coulomb Cutoff        :none
#      |xc-Kernel               :none
#   RIM|RL components      [col]:0
#      |Random points      [col]:0
#
#  E/ev[1]    eps /Im[2] eps /Re[3] eps0/Im[4] eps0/Re[5]
#
    0.0000     0.0205     0.5400     0.0029     1.1792
    0.0100     0.0203     0.5421     0.0029     1.1795
    0.0200     0.0202     0.5441     0.0029     1.1798
    0.0300     0.0200     0.5461     0.0029     1.1801
    0.0400     0.0199     0.5481     0.0029     1.1804
    0.0501     0.0197     0.5500     0.0030     1.1807
    0.0601     0.0196     0.5520     0.0030     1.1810
    0.0701     0.0194     0.5539     0.0030     1.1813
    0.0801     0.0193     0.5559     0.0030     1.1816
    0.0901     0.0191     0.5578     0.0030     1.1819
    0.1001     0.0190     0.5597     0.0030     1.1822
    0.1101     0.0189     0.5616     0.0030     1.1825
    0.1201     0.0187     0.5634     0.0030     1.1828
    0.1301     0.0186     0.5653     0.0030     1.1831
    0.1401     0.0185     0.5672     0.0030     1.1834
    0.1502     0.0183     0.5690     0.0031     1.1837
    0.1602     0.0182     0.5708     0.0031     1.1840
    0.1702     0.0181     0.5726     0.0031     1.1843
    0.1802     0.0180     0.5744     0.0031     1.1846
    0.1902     0.0179     0.5762     0.0031     1.1849
    0.2002     0.0178     0.5780     0.0031     1.1852
    0.2102     0.0177     0.5797     0.0031     1.1855
    0.2202     0.0175     0.5815     0.0031     1.1858
    0.2302     0.0174     0.5832     0.0031     1.1862
    0.2402     0.0173     0.5850     0.0032     1.1865
    0.2503     0.0172     0.5867     0.0032     1.1868
    0.2603     0.0171     0.5884     0.0032     1.1871
    0.2703     0.0170     0.5901     0.0032     1.1874
    0.2803     0.0170     0.5918     0.0032     1.1877
    0.2903     0.0169     0.5935     0.0032     1.1881
    0.3003     0.0168     0.5952     0.0032     1.1884
    0.3103     0.0167     0.5968     0.0032     1.1887
    0.3203     0.0166     0.5985     0.0032     1.1890
    0.3303     0.0165     0.6001     0.0032     1.1894
    0.3403     0.0165     0.6018     0.0033     1.1897
    0.3504     0.0164     0.6034     0.0033     1.1900
    0.3604     0.0163     0.6050     0.0033     1.1903
    0.3704     0.0163     0.6066     0.0033     1.1907
    0.3804     0.0162     0.6082     0.0033     1.1910
    0.3904     0.0162     0.6099     0.0033     1.1913
    0.4004     0.0161     0.6115     0.0033     1.1917
    0.4104     0.0161     0.6130     0.0033     1.1920
    0.4204     0.0160     0.6146     0.0034     1.1923
    0.4304     0.0160     0.6162     0.0034     1.1927
    0.4404     0.0160     0.6178     0.0034     1.1930
    0.4505     0.0160     0.6194     0.0034     1.1933
    0.4605     0.0159     0.6209     0.0034     1.1937
    0.4705     0.0159     0.6225     0.0034     1.1940
    0.4805     0.0159     0.6241     0.0034     1.1944
    0.4905     0.0159     0.6256     0.0034     1.1947
    0.5005     0.0160     0.6272     0.0035     1.1950
    0.5105     0.0160     0.6288     0.0035     1.1954
    0.5205     0.0160     0.6303     0.0035     1.1957
    0.5305     0.0161     0.6319     0.0035     1.1961
    0.5405     0.0162     0.6334     0.0035     1.1964
    0.5506     0.0162     0.6350     0.0035     1.1968
    0.5606     0.0163     0.6366     0.0035     1.1971
    0.5706     0.0165     0.6381     0.0035     1.1975
    0.5806     0.0166     0.6397     0.0036     1.1979
    0.5906     0.0168     0.6413     0.0036     1.1982
    0.6006     0.0170     0.6428     0.0036     1.1986
    0.6106     0.0172     0.6444     0.0036     1.1989
    0.6206     0.0174     0.6460     0.0036     1.1993
    0.6306     0.0177     0.6476     0.0036     1.1996
    0.6406     0.0181     0.6492     0.0036     1.2000
    0.6507     0.0184     0.6508     0.0036     1.2004
    0.6607     0.0189     0.6523     0.0037     1.2007
    0.6707     0.0194     0.6539     0.0037     1.2011
    0.6807     0.0200     0.6555     0.0037     1.2015
    0.6907     0.0206     0.6571     0.0037     1.2018
    0.7007     0.0214     0.6586     0.0037     1.2022
    0.7107     0.0222     0.6601     0.0037     1.2026
    0.7207     0.0232     0.6615     0.0037     1.2030
    0.7307     0.0243     0.6629     0.0038     1.2033
    0.7407     0.0255     0.6642     0.0038     1.2037
    0.7508     0.0269     0.6653     0.0038     1.2041
    0.7608     0.0284     0.6662     0.0038     1.2045
    0.7708     0.0300     0.6669     0.0038     1.2048
    0.7808     0.0317     0.6673     0.0038     1.2052
    0.7908     0.0334     0.6674     0.0038     1.2056
    0.8008     0.0351     0.6671     0.0039     1.2060
    0.8108     0.0366     0.6663     0.0039     1.2064
    0.8208     0.0378     0.6652     0.0039     1.2068
    0.8308     0.0386     0.6637     0.0039     1.2072
    0.8408     0.0389     0.6621     0.0039     1.2075
    0.8509     0.0387     0.6605     0.0039     1.2079
    0.8609     0.0379     0.6589     0.0039     1.2083
    0.8709     0.0366     0.6577     0.0040     1.2087
    0.8809     0.0351     0.6568     0.0040     1.2091
    0.8909     0.0333     0.6563     0.0040     1.2095
    0.9009     0.0314     0.6561     0.0040     1.2099
    0.9109     0.0296     0.6564     0.0040     1.2103
    0.9209     0.0278     0.6569     0.0040     1.2107
    0.9309     0.0261     0.6577     0.0040     1.2111
    0.9409     0.0246     0.6586     0.0041     1.2115
    0.9510     0.0232     0.6597     0.0041     1.2119
    0.9610     0.0219     0.6609     0.0041     1.2123
    0.9710     0.0208     0.6622     0.0041     1.2128
    0.9810     0.0198     0.6635     0.0041     1.2132
    0.9910     0.0189     0.6648     0.0041     1.2136
    1.0010     0.0181     0.6662     0.0042     1.2140
    1.0110     0.0174     0.6675     0.0042     1.2144
    1.0210     0.0167     0.6689     0.0042     1.2148
    1.0310     0.0161     0.6702     0.0042     1.2153
    1.0410     0.0156     0.6716     0.0042     1.2157
    1.0511     0.0151     0.6729     0.0042     1.2161
    1.0611     0.0147     0.6742     0.0043     1.2165
    1.0711     0.0143     0.6755     0.0043     1.2170
    1.0811     0.0139     0.6768     0.0043     1.2174
    1.0911     0.0136     0.6780     0.0043     1.2178
    1.1011     0.0133     0.6793     0.0043     1.2182
    1.1111     0.0130     0.6805     0.0043     1.2187
    1.1211     0.0127     0.6817     0.0044     1.2191
    1.1311     0.0125     0.6829     0.0044     1.2196
    1.1411     0.0123     0.6841     0.0044     1.2200
    1.1512     0.0121     0.6852     0.0044     1.2204
    1.1612     0.0119     0.6864     0.0044     1.2209
    1.1712     0.0117     0.6875     0.0045     1.2213
    1.1812     0.0115     0.6886     0.0045     1.2218
    1.1912     0.0114     0.6898     0.0045     1.2222
    1.2012     0.0112     0.6909     0.0045     1.2227
    1.2112     0.0111     0.6919     0.0045     1.2231
    1.2212     0.0109     0.6930     0.0045     1.2236
    1.2312     0.0108     0.6941     0.0046     1.2240
    1.2412     0.0107     0.6951     0.0046     1.2245
    1.2513     0.0106     0.6962     0.0046     1.2249
    1.2613     0.0104     0.6972     0.0046     1.2254
    1.2713     0.0103     0.6982     0.0046     1.2259
    1.2813     0.0102     0.6992     0.0047     1.2263
    1.2913     0.0101     0.7002     0.0047     1.2268
    1.3013     0.0101     0.7012     0.0047     1.2273
    1.3113     0.0100     0.7022     0.0047     1.2277
    1.3213     0.0099     0.7032     0.0047     1.2282
    1.3313     0.0098     0.7042     0.0048     1.2287
    1.3413     0.0097     0.7052     0.0048     1.2292
    1.3514     0.0096     0.7061     0.0048     1.2296
    1.3614     0.0096     0.7071     0.0048     1.2301
    1.3714     0.0095     0.7080     0.0048     1.2306
    1.3814     0.0094     0.7089     0.0049     1.2311
    1.3914     0.0094     0.7099     0.0049     1.2316
    1.4014     0.0093     0.7108     0.0049     1.2321
    1.4114     0.0092     0.7117     0.0049     1.2326
    1.4214     0.0092     0.7126     0.0049     1.2331
    1.4314     0.0091     0.7136     0.0050     1.2336
    1.4414     0.0091     0.7145     0.0050     1.2340
    1.4515     0.0090     0.7154     0.0050     1.2345
    1.4615     0.0090     0.7163     0.0050     1.2351
    1.4715     0.0089     0.7171     0.0051     1.2356
    1.4815     0.0089     0.7180     0.0051     1.2361
    1.4915     0.0088     0.7189     0.0051     1.2366
    1.5015     0.0088     0.7198     0.0051     1.2371
    1.5115     0.0087     0.7206     0.0051     1.2376
    1.5215     0.0087     0.7215     0.0052     1.2381
    1.5315     0.0086     0.7224     0.0052     1.2386
    1.5415     0.0086     0.7232     0.0052     1.2391
    1.5516     0.0085     0.7241     0.0052     1.2397
    1.5616     0.0085     0.7249     0.0053     1.2402
    1.5716     0.0085     0.7258     0.0053     1.2407
    1.5816     0.0084     0.7266     0.0053     1.2413
    1.5916     0.0084     0.7275     0.0053     1.2418
    1.6016     0.0084     0.7283     0.0054     1.2423
    1.6116     0.0083     0.7291     0.0054     1.2429
    1.6216     0.0083     0.7300     0.0054     1.2434
    1.6316     0.0083     0.7308     0.0054     1.2439
    1.6416     0.0082     0.7316     0.0054     1.2445
    1.6517     0.0082     0.7324     0.0055     1.2450
    1.6617     0.0082     0.7332     0.0055     1.2456
    1.6717     0.0081     0.7341     0.0055     1.2461
    1.6817     0.0081     0.7349     0.0055     1.2467
    1.6917     0.0081     0.7357     0.0056     1.2472
    1.7017     0.0081     0.7365     0.0056     1.2478
    1.7117     0.0081     0.7373     0.0056     1.2484
    1.7217     0.0080     0.7381     0.0057     1.2489
    1.7317     0.0080     0.7389     0.0057     1.2495
    1.7417     0.0080     0.7397     0.0057     1.2501
    1.7518     0.0080     0.7405     0.0057     1.2506
    1.7618     0.0080     0.7413     0.0058     1.2512
    1.7718     0.0079     0.7421     0.0058     1.2518
    1.7818     0.0079     0.7428     0.0058     1.2524
    1.7918     0.0079     0.7436     0.0058     1.2529
    1.8018     0.0079     0.7444     0.0059     1.2535
    1.8118     0.0079     0.7452     0.0059     1.2541
    1.8218     0.0079     0.7460     0.0059     1.2547
    1.8318     0.0079     0.7468     0.0059     1.2553
    1.8418     0.0079     0.7476     0.0060     1.2559
    1.8519     0.0078     0.7483     0.0060     1.2565
    1.8619     0.0078     0.7491     0.0060     1.2571
    1.8719     0.0078     0.7499     0.0061     1.2577
    1.8819     0.0078     0.7507     0.0061     1.2583
    1.8919     0.0078     0.7515     0.0061     1.2589
    1.9019     0.0078     0.7522     0.0062     1.2595
    1.9119     0.0078     0.7530     0.0062     1.2601
    1.9219     0.0078     0.7538     0.0062     1.2608
    1.9319     0.0078     0.7546     0.0062     1.2614
    1.9419     0.0078     0.7554     0.0063     1.2620
    1.9520     0.0079     0.7561     0.0063     1.2626
    1.9620     0.0079     0.7569     0.0063     1.2633
    1.9720     0.0079     0.7577     0.0064     1.2639
    1.9820     0.0079     0.7585     0.0064     1.2645
    1.9920     0.0079     0.7593     0.0064     1.2652
    2.0020     0.0079     0.7600     0.0065     1.2658
    2.0120     0.0079     0.7608     0.0065     1.2665
    2.0220     0.0080     0.7616     0.0065     1.2671
    2.0320     0.0080     0.7624     0.0066     1.2678
    2.0420     0.0080     0.7632     0.0066     1.2684
    2.0521     0.0080     0.7640     0.0066     1.2691
    2.0621     0.0081     0.7648     0.0067     1.2698
    2.0721     0.0081     0.7656     0.0067     1.2704
    2.0821     0.0081     0.7664     0.0067     1.2711
    2.0921     0.0082     0.7672     0.0068     1.2718
    2.1021     0.0082     0.7680     0.0068     1.2724
    2.1121     0.0083     0.7688     0.0068     1.2731
    2.1221     0.0083     0.7696     0.0069     1.2738
    2.1321     0.0084     0.7705     0.0069     1.2745
    2.1421     0.0084     0.7713     0.0069     1.2752
    2.1522     0.0085     0.7721     0.0070     1.2759
    2.1622     0.0086     0.7729     0.0070     1.2766
    2.1722     0.0086     0.7738     0.0070     1.2773
    2.1822     0.0087     0.7746     0.0071     1.2780
    2.1922     0.0088     0.7755     0.0071     1.2787
    2.2022     0.0089     0.7764     0.0071     1.2794
    2.2122     0.0090     0.7772     0.0072     1.2801
    2.2222     0.0091     0.7781     0.0072     1.2808
    2.2322     0.0092     0.7790     0.0073     1.2816
    2.2422     0.0093     0.7799     0.0073     1.2823
    2.2523     0.0094     0.7808     0.0073     1.2830
    2.2623     0.0095     0.7817     0.0074     1.2838
    2.2723     0.0097     0.7826     0.0074     1.2845
    2.2823     0.0098     0.7836     0.0075     1.2852
    2.2923     0.0100     0.7845     0.0075     1.2860
    2.3023     0.0102     0.7855     0.0075     1.2867
    2.3123     0.0103     0.7865     0.0076     1.2875
    2.3223     0.0105     0.7875     0.0076     1.2883
    2.3323     0.0108     0.7885     0.0077     1.2890
    2.3423     0.0110     0.7895     0.0077     1.2898
    2.3524     0.0112     0.7906     0.0077     1.2906
    2.3624     0.0115     0.7916     0.0078     1.2913
    2.3724     0.0118     0.7927     0.0078     1.2921
    2.3824     0.0121     0.7938     0.0079     1.2929
    2.3924     0.0124     0.7950     0.0079     1.2937
    2.4024     0.0128     0.7961     0.0080     1.2945
    2.4124     0.0132     0.7973     0.0080     1.2953
    2.4224     0.0136     0.7985     0.0080     1.2961
    2.4324     0.0140     0.7998     0.0081     1.2969
    2.4424     0.0145     0.8010     0.0081     1.2977
    2.4525     0.0151     0.8023     0.0082     1.2985
    2.4625     0.0156     0.8037     0.0082     1.2993
    2.4725     0.0163     0.8050     0.0083     1.3001
    2.4825     0.0170     0.8065     0.0083     1.3010
    2.4925     0.0178     0.8079     0.0084     1.3018
    2.5025     0.0186     0.8094     0.0084     1.3026
    2.5125     0.0195     0.8110     0.0085     1.3035
    2.5225     0.0206     0.8126     0.0085     1.3043
    2.5325     0.0217     0.8142     0.0086     1.3052
    2.5425     0.0230     0.8159     0.0086     1.3060
    2.5526     0.0244     0.8176     0.0086     1.3069
    2.5626     0.0259     0.8194     0.0087     1.3078
    2.5726     0.0277     0.8212     0.0087     1.3086
    2.5826     0.0296     0.8230     0.0088     1.3095
    2.5926     0.0318     0.8249     0.0089     1.3104
    2.6026     0.0343     0.8267     0.0089     1.3113
    2.6126     0.0370     0.8286     0.0090     1.3122
    2.6226     0.0401     0.8303     0.0090     1.3131
    2.6326     0.0436     0.8320     0.0091     1.3140
    2.6426     0.0476     0.8336     0.0091     1.3149
    2.6527     0.0520     0.8349     0.0092     1.3158
    2.6627     0.0569     0.8359     0.0092     1.3167
    2.6727     0.0624     0.8364     0.0093     1.3176
    2.6827     0.0685     0.8363     0.0093     1.3186
    2.6927     0.0750     0.8354     0.0094     1.3195
    2.7027     0.0820     0.8334     0.0094     1.3205
    2.7127     0.0892     0.8301     0.0095     1.3214
    2.7227     0.0964     0.8254     0.0096     1.3224
    2.7327     0.1031     0.8191     0.0096     1.3233
    2.7427     0.1089     0.8111     0.0097     1.3243
    2.7528     0.1132     0.8018     0.0097     1.3252
    2.7628     0.1156     0.7915     0.0098     1.3262
    2.7728     0.1159     0.7808     0.0099     1.3272
    2.7828     0.1139     0.7703     0.0099     1.3282
    2.7928     0.1100     0.7607     0.0100     1.3292
   2.80280    0.10451    0.75243    0.01004    1.33018
   2.81281    0.09797    0.74568    0.01010    1.33119
   2.82282    0.09085    0.74055    0.01016    1.33220
   2.83283    0.08359    0.73693    0.01023    1.33322
   2.84284    0.07649    0.73463    0.01029    1.33424
   2.85285    0.06978    0.73343    0.01036    1.33527
   2.86286    0.06356    0.73311    0.01042    1.33631
   2.87287    0.05789    0.73346    0.01049    1.33736
   2.88288    0.05278    0.73430    0.01055    1.33841
   2.89289    0.04820    0.73550    0.01062    1.33947
   2.90290    0.04411    0.73696    0.01069    1.34053
   2.91291    0.04048    0.73858    0.01076    1.34160
   2.92292    0.03724    0.74030    0.01083    1.34268
   2.93293    0.03437    0.74208    0.01090    1.34376
   2.94294    0.03181    0.74388    0.01097    1.34486
   2.95295    0.02953    0.74568    0.01104    1.34596
   2.96296    0.02749    0.74746    0.01111    1.34706
   2.97297    0.02566    0.74921    0.01119    1.34818
   2.98298    0.02402    0.75091    0.01126    1.34930
   2.99299    0.02255    0.75258    0.01133    1.35043
   3.00300    0.02122    0.75419    0.01141    1.35156
   3.01301    0.02002    0.75576    0.01148    1.35270
   3.02302    0.01893    0.75728    0.01156    1.35386
   3.03303    0.01795    0.75874    0.01164    1.35501
   3.04304    0.01705    0.76016    0.01172    1.35618
   3.05305    0.01622    0.76154    0.01180    1.35735
   3.06306    0.01547    0.76287    0.01188    1.35854
   3.07307    0.01478    0.76416    0.01196    1.35973
   3.08308    0.01415    0.76540    0.01204    1.36092
   3.09309    0.01356    0.76661    0.01212    1.36213
   3.10310    0.01302    0.76778    0.01220    1.36334
   3.11311    0.01253    0.76891    0.01229    1.36457
   3.12312    0.01206    0.77002    0.01237    1.36580
   3.13313    0.01164    0.77108    0.01246    1.36704
   3.14314    0.01124    0.77212    0.01255    1.36829
   3.15315    0.01087    0.77314    0.01263    1.36954
   3.16316    0.01052    0.77412    0.01272    1.37081
   3.17317    0.01020    0.77508    0.01281    1.37208
    3.1832     0.0099     0.7760     0.0129     1.3734
    3.1932     0.0096     0.7769     0.0130     1.3747
    3.2032     0.0093     0.7778     0.0131     1.3760
    3.2132     0.0091     0.7787     0.0132     1.3773
    3.2232     0.0089     0.7795     0.0133     1.3786
    3.2332     0.0086     0.7804     0.0134     1.3799
    3.2432     0.0084     0.7812     0.0135     1.3813
    3.2533     0.0082     0.7820     0.0136     1.3826
    3.2633     0.0080     0.7827     0.0137     1.3840
    3.2733     0.0079     0.7835     0.0138     1.3853
    3.2833     0.0077     0.7842     0.0139     1.3867
    3.2933     0.0075     0.7850     0.0140     1.3881
    3.3033     0.0074     0.7857     0.0141     1.3895
    3.3133     0.0072     0.7864     0.0142     1.3909
    3.3233     0.0071     0.7871     0.0143     1.3923
    3.3333     0.0070     0.7878     0.0144     1.3938
    3.3433     0.0068     0.7885     0.0145     1.3952
    3.3534     0.0067     0.7891     0.0146     1.3967
    3.3634     0.0066     0.7898     0.0147     1.3981
    3.3734     0.0065     0.7904     0.0148     1.3996
    3.3834     0.0064     0.7910     0.0149     1.4011
    3.3934     0.0063     0.7917     0.0151     1.4026
    3.4034     0.0062     0.7923     0.0152     1.4041
    3.4134     0.0061     0.7929     0.0153     1.4056
    3.4234     0.0060     0.7935     0.0154     1.4071
    3.4334     0.0060     0.7941     0.0155     1.4087
    3.4434     0.0059     0.7946     0.0156     1.4102
    3.4535     0.0058     0.7952     0.0158     1.4118
    3.4635     0.0057     0.7958     0.0159     1.4134
    3.4735     0.0056     0.7963     0.0160     1.4150
    3.4835     0.0056     0.7969     0.0161     1.4166
    3.4935     0.0055     0.7974     0.0163     1.4182
    3.5035     0.0055     0.7980     0.0164     1.4198
    3.5135     0.0054     0.7985     0.0165     1.4215
    3.5235     0.0053     0.7990     0.0167     1.4231
    3.5335     0.0053     0.7996     0.0168     1.4248
    3.5435     0.0052     0.8001     0.0169     1.4265
    3.5536     0.0052     0.8006     0.0171     1.4282
    3.5636     0.0051     0.8011     0.0172     1.4299
    3.5736     0.0051     0.8016     0.0174     1.4316
    3.5836     0.0050     0.8021     0.0175     1.4334
    3.5936     0.0050     0.8026     0.0177     1.4351
    3.6036     0.0049     0.8031     0.0178     1.4369
    3.6136     0.0049     0.8036     0.0180     1.4387
    3.6236     0.0049     0.8041     0.0181     1.4405
    3.6336     0.0048     0.8045     0.0183     1.4423
    3.6436     0.0048     0.8050     0.0184     1.4441
    3.6537     0.0047     0.8055     0.0186     1.4460
    3.6637     0.0047     0.8060     0.0187     1.4478
    3.6737     0.0047     0.8064     0.0189     1.4497
    3.6837     0.0046     0.8069     0.0191     1.4516
    3.6937     0.0046     0.8073     0.0192     1.4535
    3.7037     0.0046     0.8078     0.0194     1.4554
    3.7137     0.0046     0.8083     0.0196     1.4574
    3.7237     0.0045     0.8087     0.0197     1.4593
    3.7337     0.0045     0.8091     0.0199     1.4613
    3.7437     0.0045     0.8096     0.0201     1.4633
    3.7538     0.0045     0.8100     0.0203     1.4653
    3.7638     0.0044     0.8105     0.0204     1.4673
    3.7738     0.0044     0.8109     0.0206     1.4694
    3.7838     0.0044     0.8113     0.0208     1.4714
    3.7938     0.0044     0.8118     0.0210     1.4735
    3.8038     0.0044     0.8122     0.0212     1.4756
    3.8138     0.0043     0.8126     0.0214     1.4778
    3.8238     0.0043     0.8131     0.0216     1.4799
    3.8338     0.0043     0.8135     0.0218     1.4821
    3.8438     0.0043     0.8139     0.0220     1.4842
    3.8539     0.0043     0.8144     0.0222     1.4864
    3.8639     0.0043     0.8148     0.0224     1.4887
    3.8739     0.0043     0.8152     0.0226     1.4909
    3.8839     0.0043     0.8156     0.0228     1.4932
    3.8939     0.0043     0.8160     0.0231     1.4955
    3.9039     0.0043     0.8165     0.0233     1.4978
    3.9139     0.0043     0.8169     0.0235     1.5001
    3.9239     0.0043     0.8173     0.0237     1.5025
    3.9339     0.0043     0.8177     0.0240     1.5048
    3.9439     0.0043     0.8181     0.0242     1.5072
    3.9540     0.0043     0.8186     0.0245     1.5097
    3.9640     0.0044     0.8190     0.0247     1.5121
    3.9740     0.0044     0.8194     0.0249     1.5146
    3.9840     0.0044     0.8198     0.0252     1.5171
    3.9940     0.0044     0.8202     0.0255     1.5196
    4.0040     0.0045     0.8207     0.0257     1.5221
    4.0140     0.0045     0.8211     0.0260     1.5247
    4.0240     0.0046     0.8215     0.0262     1.5273
    4.0340     0.0046     0.8219     0.0265     1.5299
    4.0440     0.0047     0.8224     0.0268     1.5326
    4.0541     0.0048     0.8228     0.0271     1.5353
    4.0641     0.0049     0.8232     0.0273     1.5380
    4.0741     0.0050     0.8237     0.0276     1.5407
    4.0841     0.0051     0.8241     0.0279     1.5435
    4.0941     0.0052     0.8245     0.0282     1.5463
    4.1041     0.0054     0.8250     0.0285     1.5491
    4.1141     0.0056     0.8254     0.0288     1.5520
    4.1241     0.0058     0.8258     0.0292     1.5548
    4.1341     0.0060     0.8262     0.0295     1.5578
    4.1441     0.0062     0.8266     0.0298     1.5607
    4.1542     0.0065     0.8270     0.0301     1.5637
    4.1642     0.0068     0.8273     0.0305     1.5667
    4.1742     0.0072     0.8276     0.0308     1.5697
    4.1842     0.0076     0.8279     0.0311     1.5728
    4.1942     0.0080     0.8281     0.0315     1.5759
    4.2042     0.0085     0.8283     0.0319     1.5791
    4.2142     0.0089     0.8283     0.0322     1.5823
    4.2242     0.0094     0.8282     0.0326     1.5855
    4.2342     0.0098     0.8281     0.0330     1.5888
   4.24424    0.01011    0.82780    0.03336    1.59206
   4.25425    0.01033    0.82744    0.03375    1.59539
   4.26426    0.01041    0.82704    0.03415    1.59877
   4.27427    0.01036    0.82663    0.03455    1.60218
   4.28428    0.01016    0.82625    0.03497    1.60564
    4.2943     0.0098     0.8259     0.0354     1.6091
    4.3043     0.0094     0.8257     0.0358     1.6127
    4.3143     0.0090     0.8256     0.0363     1.6162
    4.3243     0.0085     0.8256     0.0367     1.6199
    4.3343     0.0080     0.8257     0.0372     1.6235
    4.3443     0.0076     0.8258     0.0376     1.6273
    4.3544     0.0071     0.8261     0.0381     1.6310
    4.3644     0.0067     0.8263     0.0386     1.6348
    4.3744     0.0064     0.8267     0.0391     1.6387
    4.3844     0.0060     0.8270     0.0396     1.6426
    4.3944     0.0057     0.8274     0.0401     1.6465
    4.4044     0.0055     0.8277     0.0406     1.6505
    4.4144     0.0052     0.8281     0.0411     1.6546
    4.4244     0.0050     0.8285     0.0417     1.6587
    4.4344     0.0049     0.8289     0.0422     1.6628
    4.4444     0.0047     0.8293     0.0428     1.6671
    4.4545     0.0045     0.8296     0.0433     1.6713
  4.464     0.4400E-2  0.8300     0.4392E-1   1.676   
  4.474     0.4279E-2  0.8304     0.4452E-1   1.680   
  4.484     0.4169E-2  0.8308     0.4513E-1   1.684   
  4.494     0.4070E-2  0.8312     0.4576E-1   1.689   
  4.505     0.3979E-2  0.8315     0.4639E-1   1.694   
  4.515     0.3897E-2  0.8319     0.4704E-1   1.698   
  4.525     0.3822E-2  0.8322     0.4771E-1   1.703   
  4.535     0.3753E-2  0.8326     0.4839E-1   1.708   
  4.545     0.3690E-2  0.8329     0.4908E-1   1.712   
  4.555     0.3632E-2  0.8333     0.4979E-1   1.717   
  4.565     0.3578E-2  0.8336     0.5052E-1   1.722   
  4.575     0.3529E-2  0.8340     0.5126E-1   1.727   
  4.585     0.3483E-2  0.8343     0.5202E-1   1.732   
  4.595     0.3441E-2  0.8347     0.5280E-1   1.738   
  4.605     0.3401E-2  0.8350     0.5359E-1   1.743   
  4.615     0.3364E-2  0.8353     0.5440E-1   1.748   
  4.625     0.3330E-2  0.8356     0.5524E-1   1.754   
  4.635     0.3298E-2  0.8360     0.5609E-1   1.759   
  4.645     0.3268E-2  0.8363     0.5696E-1   1.765   
  4.655     0.3240E-2  0.8366     0.5785E-1   1.770   
  4.665     0.3214E-2  0.8369     0.5877E-1   1.776   
  4.675     0.3189E-2  0.8372     0.5970E-1   1.782   
  4.685     0.3166E-2  0.8375     0.6067E-1   1.788   
  4.695     0.3144E-2  0.8379     0.6165E-1   1.794   
  4.705     0.3124E-2  0.8382     0.6266E-1   1.800   
  4.715     0.3105E-2  0.8385     0.6369E-1   1.806   
  4.725     0.3087E-2  0.8388     0.6476E-1   1.813   
  4.735     0.3071E-2  0.8391     0.6584E-1   1.819   
  4.745     0.3055E-2  0.8394     0.6696E-1   1.826   
  4.755     0.3041E-2  0.8397     0.6811E-1   1.832   
  4.765     0.3027E-2  0.8400     0.6929E-1   1.839   
  4.775     0.3014E-2  0.8403     0.7050E-1   1.846   
  4.785     0.3003E-2  0.8406     0.7174E-1   1.853   
  4.795     0.2992E-2  0.8409     0.7301E-1   1.860   
  4.805     0.2982E-2  0.8412     0.7433E-1   1.867   
  4.815     0.2973E-2  0.8415     0.7567E-1   1.875   
  4.825     0.2965E-2  0.8418     0.7706E-1   1.882   
  4.835     0.2957E-2  0.8421     0.7848E-1   1.890   
  4.845     0.2951E-2  0.8424     0.7995E-1   1.898   
  4.855     0.2945E-2  0.8427     0.8146E-1   1.906   
  4.865     0.2940E-2  0.8429     0.8301E-1   1.914   
  4.875     0.2936E-2  0.8432     0.8461E-1   1.922   
  4.885     0.2932E-2  0.8435     0.8626E-1   1.930   
  4.895     0.2930E-2  0.8438     0.8796E-1   1.939   
  4.905     0.2928E-2  0.8441     0.8971E-1   1.948   
  4.915     0.2927E-2  0.8444     0.9152E-1   1.957   
  4.925     0.2927E-2  0.8447     0.9338E-1   1.966   
  4.935     0.2928E-2  0.8450     0.9530E-1   1.975   
  4.945     0.2930E-2  0.8453     0.9728E-1   1.984   
  4.955     0.2933E-2  0.8456     0.9932E-1   1.994   
  4.965     0.2937E-2  0.8458     0.1014      2.004   
  4.975     0.2942E-2  0.8461     0.1036      2.014   
  4.985     0.2948E-2  0.8464     0.1059      2.024   
  4.995     0.2956E-2  0.8467     0.1082      2.034   
  5.005     0.2964E-2  0.8470     0.1106      2.045   
  5.015     0.2974E-2  0.8473     0.1131      2.056   
  5.025     0.2985E-2  0.8476     0.1157      2.067   
  5.035     0.2998E-2  0.8479     0.1184      2.079   
  5.045     0.3012E-2  0.8482     0.1212      2.090   
  5.055     0.3028E-2  0.8485     0.1240      2.102   
  5.065     0.3046E-2  0.8488     0.1270      2.114   
  5.075     0.3065E-2  0.8491     0.1301      2.127   
  5.085     0.3087E-2  0.8494     0.1334      2.140   
  5.095     0.3111E-2  0.8497     0.1367      2.153   
  5.105     0.3137E-2  0.8500     0.1402      2.166   
  5.115     0.3166E-2  0.8503     0.1438      2.180   
  5.125     0.3197E-2  0.8506     0.1475      2.194   
  5.135     0.3232E-2  0.8509     0.1514      2.208   
  5.145     0.3270E-2  0.8512     0.1555      2.223   
  5.155     0.3312E-2  0.8515     0.1598      2.238   
  5.165     0.3357E-2  0.8519     0.1642      2.254   
  5.175     0.3407E-2  0.8522     0.1688      2.270   
  5.185     0.3462E-2  0.8525     0.1736      2.286   
  5.195     0.3522E-2  0.8528     0.1787      2.303   
  5.205     0.3589E-2  0.8532     0.1840      2.320   
  5.215     0.3661E-2  0.8535     0.1895      2.338   
  5.225     0.3741E-2  0.8538     0.1953      2.356   
  5.235     0.3829E-2  0.8542     0.2013      2.375   
  5.245     0.3927E-2  0.8545     0.2077      2.395   
  5.255     0.4034E-2  0.8549     0.2143      2.415   
  5.265     0.4153E-2  0.8553     0.2213      2.435   
  5.275     0.4285E-2  0.8556     0.2287      2.457   
  5.285     0.4431E-2  0.8560     0.2365      2.478   
  5.295     0.4594E-2  0.8564     0.2446      2.501   
  5.305     0.4775E-2  0.8568     0.2532      2.524   
  5.315     0.4978E-2  0.8571     0.2623      2.548   
  5.325     0.5205E-2  0.8575     0.2719      2.573   
    5.3353     0.0055     0.8579     0.2821     2.5989
    5.3453     0.0057     0.8583     0.2928     2.6255
    5.3554     0.0061     0.8587     0.3042     2.6530
    5.3654     0.0064     0.8591     0.3163     2.6815
    5.3754     0.0068     0.8595     0.3292     2.7109
    5.3854     0.0073     0.8599     0.3429     2.7415
    5.3954     0.0078     0.8602     0.3575     2.7732
    5.4054     0.0084     0.8606     0.3730     2.8060
    5.4154     0.0091     0.8608     0.3897     2.8401
    5.4254     0.0098     0.8611     0.4075     2.8756
   5.43544    0.01058    0.86120    0.42654    2.91240
   5.44545    0.01145    0.86123    0.44703    2.95068
   5.45545    0.01237    0.86111    0.46907    2.99050
   5.46547    0.01332    0.86083    0.49282    3.03193
   5.47548    0.01427    0.86035    0.51845    3.07506
   5.48549    0.01516    0.85966    0.54618    3.11998
   5.49549    0.01592    0.85876    0.57623    3.16677
   5.50551    0.01650    0.85766    0.60887    3.21552
   5.51552    0.01682    0.85644    0.64439    3.26632
   5.52553    0.01685    0.85516    0.68314    3.31923
   5.53553    0.01659    0.85392    0.72551    3.37432
   5.54555    0.01607    0.85278    0.77194    3.43167
   5.55556    0.01534    0.85182    0.82294    3.49128
   5.56557    0.01447    0.85106    0.87910    3.55317
   5.57558    0.01352    0.85052    0.94110    3.61729
   5.58559    0.01255    0.85018    1.00970    3.68353
   5.59560    0.01161    0.85002    1.08578    3.75169
   5.60561    0.01071    0.85000    1.17033    3.82144
    5.6156     0.0099     0.8501     1.2645     3.8923
    5.6256     0.0091     0.8503     1.3695     3.9636
    5.6356     0.0084     0.8505     1.4866     4.0343
    5.6456     0.0078     0.8508     1.6174     4.1030
    5.6557     0.0073     0.8512     1.7633     4.1680
    5.6657     0.0068     0.8515     1.9257     4.2267
    5.6757     0.0064     0.8519     2.1055     4.2762
    5.6857     0.0060     0.8523     2.3034     4.3125
  5.696     0.5631E-2  0.8527      2.519      4.331   
  5.706     0.5325E-2  0.8530      2.751      4.327   
  5.716     0.5051E-2  0.8534      2.995      4.295   
  5.726     0.4806E-2  0.8538      3.248      4.231   
  5.736     0.4586E-2  0.8541      3.500      4.132   
  5.746     0.4388E-2  0.8545      3.746      3.997   
  5.756     0.4209E-2  0.8549      3.976      3.830   
  5.766     0.4047E-2  0.8552      4.186      3.635   
  5.776     0.3900E-2  0.8555      4.373      3.419   
  5.786     0.3766E-2  0.8559      4.538      3.186   
  5.796     0.3645E-2  0.8562      4.682      2.939   
  5.806     0.3533E-2  0.8565      4.806      2.676   
  5.816     0.3431E-2  0.8568      4.910      2.394   
  5.826     0.3338E-2  0.8572      4.986      2.091   
  5.836     0.3252E-2  0.8575      5.025      1.769   
  5.846     0.3173E-2  0.8578      5.017      1.433   
  5.856     0.3100E-2  0.8580      4.953      1.096   
  5.866     0.3032E-2  0.8583      4.833     0.7746   
  5.876     0.2969E-2  0.8586      4.661     0.4852   
  5.886     0.2911E-2  0.8589      4.448     0.2411   
  5.896     0.2857E-2  0.8592      4.208     0.5006E-1
  5.906     0.2806E-2  0.8594      3.959     -.8617E-1
  5.916     0.2759E-2  0.8597      3.712     -.1707   
  5.926     0.2716E-2  0.8600      3.479     -.2097   
  5.936     0.2675E-2  0.8602      3.268     -.2111   
  5.946     0.2636E-2  0.8605      3.082     -.1828   
  5.956     0.2600E-2  0.8607      2.924     -.1323   
  5.966     0.2567E-2  0.8610      2.796     -.6621E-1
  5.976     0.2535E-2  0.8612      2.696     0.9527E-2
  5.986     0.2506E-2  0.8615      2.626     0.8979E-1
  5.996     0.2478E-2  0.8617      2.582     0.1699   
  6.006     0.2452E-2  0.8620      2.566     0.2452   
  6.016     0.2428E-2  0.8622      2.575     0.3112   
  6.026     0.2405E-2  0.8624      2.608     0.3630   
  6.036     0.2384E-2  0.8627      2.661     0.3954   
  6.046     0.2363E-2  0.8629      2.731     0.4033   
  6.056     0.2345E-2  0.8631      2.813     0.3815   
  6.066     0.2327E-2  0.8634      2.897     0.3263   
  6.076     0.2311E-2  0.8636      2.975     0.2357   
  6.086     0.2296E-2  0.8638      3.034     0.1115   
  6.096     0.2281E-2  0.8641      3.065     -.4043E-1
  6.106     0.2268E-2  0.8643      3.059     -.2099   
  6.116     0.2256E-2  0.8645      3.010     -.3840   
  6.126     0.2245E-2  0.8647      2.922     -.5492   
  6.136     0.2235E-2  0.8649      2.799     -.6937   
  6.146     0.2226E-2  0.8652      2.651     -.8099   
  6.156     0.2219E-2  0.8654      2.488     -.8941   
  6.166     0.2212E-2  0.8656      2.320     -.9466   
  6.176     0.2206E-2  0.8658      2.154     -.9703   
  6.186     0.2201E-2  0.8660      1.997     -.9694   
  6.196     0.2197E-2  0.8662      1.851     -.9486   
  6.206     0.2194E-2  0.8665      1.718     -.9123   
  6.216     0.2193E-2  0.8667      1.599     -.8643   
  6.226     0.2192E-2  0.8669      1.494     -.8079   
  6.236     0.2193E-2  0.8671      1.402     -.7456   
  6.246     0.2195E-2  0.8673      1.322     -.6794   
  6.256     0.2199E-2  0.8675      1.253     -.6106   
  6.266     0.2204E-2  0.8678      1.195     -.5406   
  6.276     0.2210E-2  0.8680      1.147     -.4700   
  6.286     0.2218E-2  0.8682      1.108     -.3995   
  6.296     0.2228E-2  0.8684      1.077     -.3296   
  6.306     0.2240E-2  0.8686      1.055     -.2607   
  6.316     0.2255E-2  0.8688      1.041     -.1932   
  6.326     0.2271E-2  0.8690      1.035     -.1274   
  6.336     0.2290E-2  0.8693      1.037     -.6377E-1
  6.346     0.2312E-2  0.8695      1.047     -.2850E-2
  6.356     0.2338E-2  0.8697      1.065     0.5466E-1
  6.366     0.2367E-2  0.8699      1.092     0.1078   
  6.376     0.2400E-2  0.8701      1.127     0.1555   
  6.386     0.2437E-2  0.8704      1.172     0.1960   
  6.396     0.2480E-2  0.8706      1.225     0.2275   
  6.406     0.2528E-2  0.8708      1.286     0.2476   
  6.416     0.2583E-2  0.8710      1.353     0.2537   
  6.426     0.2645E-2  0.8713      1.424     0.2431   
  6.436     0.2716E-2  0.8715      1.496     0.2134   
  6.446     0.2796E-2  0.8717      1.564     0.1633   
  6.456     0.2887E-2  0.8719      1.620     0.9286E-1
  6.466     0.2990E-2  0.8722      1.660     0.4797E-2
  6.476     0.3107E-2  0.8724      1.678     -.9583E-1
  6.486     0.3240E-2  0.8726      1.671     -.2019   
  6.496     0.3390E-2  0.8728      1.637     -.3053   
  6.507     0.3560E-2  0.8730      1.580     -.3989   
  6.517     0.3750E-2  0.8732      1.506     -.4769   
  6.527     0.3961E-2  0.8734      1.419     -.5366   
  6.537     0.4192E-2  0.8735      1.326     -.5773   
  6.547     0.4442E-2  0.8736      1.233     -.6002   
  6.557     0.4706E-2  0.8736      1.142     -.6076   
  6.567     0.4974E-2  0.8736      1.056     -.6022   
  6.577     0.5236E-2  0.8736     0.9771     -.5867   
  6.587     0.5473E-2  0.8735     0.9054     -.5635   
  6.597     0.5666E-2  0.8733     0.8409     -.5346   
  6.607     0.5799E-2  0.8731     0.7835     -.5017   
  6.617     0.5854E-2  0.8728     0.7326     -.4661   
  6.627     0.5826E-2  0.8726     0.6877     -.4286   
  6.637     0.5717E-2  0.8723     0.6484     -.3901   
  6.647     0.5539E-2  0.8721     0.6139     -.3511   
  6.657     0.5309E-2  0.8720     0.5840     -.3119   
  6.667     0.5047E-2  0.8719     0.5581     -.2728   
  6.677     0.4770E-2  0.8719     0.5359     -.2340   
  6.687     0.4493E-2  0.8719     0.5170     -.1957   
  6.697     0.4226E-2  0.8720     0.5014     -.1577   
  6.707     0.3975E-2  0.8721     0.4886     -.1204   
  6.717     0.3744E-2  0.8722     0.4787     -.8354E-1
  6.727     0.3535E-2  0.8724     0.4715     -.4727E-1
  6.737     0.3346E-2  0.8726     0.4670     -.1157E-1
  6.747     0.3177E-2  0.8728     0.4651     0.2354E-1
  6.757     0.3026E-2  0.8730     0.4660     0.5801E-1
  6.767     0.2892E-2  0.8732     0.4697     0.9179E-1
  6.777     0.2772E-2  0.8734     0.4763     0.1248   
  6.787     0.2665E-2  0.8736     0.4860     0.1568   
  6.797     0.2569E-2  0.8738     0.4990     0.1877   
  6.807     0.2484E-2  0.8740     0.5156     0.2171   
  6.817     0.2408E-2  0.8742     0.5360     0.2446   
  6.827     0.2339E-2  0.8744     0.5605     0.2696   
  6.837     0.2277E-2  0.8746     0.5892     0.2913   
  6.847     0.2221E-2  0.8748     0.6222     0.3088   
  6.857     0.2171E-2  0.8750     0.6594     0.3208   
  6.867     0.2125E-2  0.8752     0.7003     0.3259   
  6.877     0.2083E-2  0.8754     0.7439     0.3226   
  6.887     0.2045E-2  0.8756     0.7885     0.3094   
  6.897     0.2010E-2  0.8758     0.8318     0.2851   
  6.907     0.1978E-2  0.8760     0.8707     0.2494   
  6.917     0.1949E-2  0.8762     0.9017     0.2028   
  6.927     0.1923E-2  0.8763     0.9213     0.1475   
  6.937     0.1898E-2  0.8765     0.9271     0.8707E-1
  6.947     0.1875E-2  0.8767     0.9180     0.2572E-1
  6.957     0.1854E-2  0.8769     0.8945     -.3202E-1
  6.967     0.1835E-2  0.8771     0.8589     -.8244E-1
  6.977     0.1817E-2  0.8772     0.8145     -.1231   
  6.987     0.1801E-2  0.8774     0.7647     -.1528   
  6.997     0.1786E-2  0.8776     0.7128     -.1720   
  7.007     0.1772E-2  0.8778     0.6612     -.1816   
  7.017     0.1759E-2  0.8779     0.6118     -.1830   
  7.027     0.1747E-2  0.8781     0.5657     -.1778   
  7.037     0.1736E-2  0.8783     0.5234     -.1675   
  7.047     0.1726E-2  0.8785     0.4851     -.1533   
  7.057     0.1717E-2  0.8786     0.4507     -.1364   
  7.067     0.1708E-2  0.8788     0.4201     -.1175   
  7.077     0.1701E-2  0.8790     0.3929     -.9723E-1
  7.087     0.1694E-2  0.8791     0.3689     -.7617E-1
  7.097     0.1688E-2  0.8793     0.3477     -.5465E-1
  7.107     0.1683E-2  0.8795     0.3290     -.3292E-1
  7.117     0.1678E-2  0.8796     0.3126     -.1117E-1
  7.127     0.1675E-2  0.8798     0.2982     0.1047E-1
  7.137     0.1672E-2  0.8800     0.2856     0.3191E-1
  7.147     0.1669E-2  0.8801     0.2747     0.5310E-1
  7.157     0.1668E-2  0.8803     0.2652     0.7402E-1
  7.167     0.1667E-2  0.8805     0.2572     0.9464E-1
  7.177     0.1667E-2  0.8806     0.2504     0.1150   
  7.187     0.1668E-2  0.8808     0.2448     0.1350   
  7.197     0.1669E-2  0.8809     0.2404     0.1548   
  7.207     0.1672E-2  0.8811     0.2371     0.1743   
  7.217     0.1675E-2  0.8813     0.2348     0.1935   
  7.227     0.1680E-2  0.8814     0.2337     0.2125   
  7.237     0.1686E-2  0.8816     0.2336     0.2313   
  7.247     0.1692E-2  0.8818     0.2347     0.2498   
  7.257     0.1700E-2  0.8819     0.2370     0.2682   
  7.267     0.1710E-2  0.8821     0.2405     0.2862   
  7.277     0.1721E-2  0.8823     0.2454     0.3040   
  7.287     0.1733E-2  0.8824     0.2517     0.3214   
  7.297     0.1747E-2  0.8826     0.2596     0.3384   
  7.307     0.1764E-2  0.8828     0.2693     0.3548   
  7.317     0.1782E-2  0.8829     0.2808     0.3704   
  7.327     0.1803E-2  0.8831     0.2944     0.3850   
  7.337     0.1826E-2  0.8833     0.3103     0.3981   
  7.347     0.1853E-2  0.8834     0.3284     0.4094   
  7.357     0.1883E-2  0.8836     0.3490     0.4183   
  7.367     0.1917E-2  0.8838     0.3718     0.4240   
  7.377     0.1955E-2  0.8840     0.3966     0.4257   
  7.387     0.1999E-2  0.8841     0.4227     0.4225   
  7.397     0.2048E-2  0.8843     0.4493     0.4135   
  7.407     0.2103E-2  0.8845     0.4747     0.3982   
  7.417     0.2166E-2  0.8847     0.4974     0.3764   
  7.427     0.2236E-2  0.8848     0.5152     0.3484   
  7.437     0.2317E-2  0.8850     0.5262     0.3158   
  7.447     0.2408E-2  0.8852     0.5290     0.2804   
  7.457     0.2510E-2  0.8854     0.5231     0.2450   
  7.467     0.2627E-2  0.8855     0.5091     0.2119   
  7.477     0.2758E-2  0.8857     0.4883     0.1834   
  7.487     0.2904E-2  0.8858     0.4627     0.1606   
  7.497     0.3068E-2  0.8859     0.4341     0.1441   
  7.508     0.3247E-2  0.8861     0.4045     0.1337   
  7.518     0.3442E-2  0.8861     0.3752     0.1287   
  7.528     0.3647E-2  0.8862     0.3472     0.1284   
  7.538     0.3858E-2  0.8862     0.3211     0.1317   
  7.548     0.4065E-2  0.8862     0.2972     0.1380   
  7.558     0.4255E-2  0.8861     0.2756     0.1464   
  7.568     0.4414E-2  0.8860     0.2563     0.1563   
  7.578     0.4526E-2  0.8858     0.2390     0.1673   
  7.588     0.4581E-2  0.8856     0.2237     0.1791   
  7.598     0.4570E-2  0.8854     0.2101     0.1913   
  7.608     0.4495E-2  0.8852     0.1981     0.2038   
  7.618     0.4365E-2  0.8850     0.1875     0.2163   
  7.628     0.4191E-2  0.8849     0.1781     0.2289   
  7.638     0.3990E-2  0.8848     0.1698     0.2414   
  7.648     0.3775E-2  0.8848     0.1626     0.2539   
  7.658     0.3558E-2  0.8848     0.1562     0.2661   
  7.668     0.3348E-2  0.8849     0.1507     0.2782   
  7.678     0.3150E-2  0.8850     0.1458     0.2901   
  7.688     0.2968E-2  0.8851     0.1417     0.3019   
  7.698     0.2802E-2  0.8852     0.1381     0.3135   
  7.708     0.2653E-2  0.8853     0.1352     0.3249   
  7.718     0.2519E-2  0.8855     0.1328     0.3362   
  7.728     0.2399E-2  0.8857     0.1309     0.3473   
  7.738     0.2292E-2  0.8858     0.1295     0.3583   
  7.748     0.2198E-2  0.8860     0.1287     0.3692   
  7.758     0.2113E-2  0.8861     0.1284     0.3800   
  7.768     0.2038E-2  0.8863     0.1286     0.3907   
  7.778     0.1970E-2  0.8865     0.1293     0.4013   
  7.788     0.1910E-2  0.8866     0.1306     0.4118   
  7.798     0.1856E-2  0.8868     0.1325     0.4223   
  7.808     0.1807E-2  0.8870     0.1351     0.4326   
  7.818     0.1763E-2  0.8871     0.1384     0.4428   
  7.828     0.1724E-2  0.8873     0.1425     0.4529   
  7.838     0.1688E-2  0.8874     0.1474     0.4627   
  7.848     0.1655E-2  0.8876     0.1533     0.4723   
  7.858     0.1625E-2  0.8877     0.1602     0.4815   
  7.868     0.1598E-2  0.8879     0.1683     0.4901   
  7.878     0.1574E-2  0.8880     0.1777     0.4981   
  7.888     0.1551E-2  0.8882     0.1884     0.5051   
  7.898     0.1530E-2  0.8883     0.2004     0.5108   
  7.908     0.1512E-2  0.8885     0.2139     0.5148   
  7.918     0.1494E-2  0.8886     0.2286     0.5167   
  7.928     0.1478E-2  0.8888     0.2442     0.5158   
  7.938     0.1463E-2  0.8889     0.2603     0.5118   
  7.948     0.1450E-2  0.8891     0.2761     0.5041   
  7.958     0.1438E-2  0.8892     0.2907     0.4925   
  7.968     0.1426E-2  0.8893     0.3028     0.4771   
  7.978     0.1416E-2  0.8895     0.3112     0.4586   
  7.988     0.1406E-2  0.8896     0.3151     0.4380   
  7.998     0.1398E-2  0.8898     0.3138     0.4166   
  8.008     0.1390E-2  0.8899     0.3074     0.3962   
  8.018     0.1383E-2  0.8900     0.2966     0.3780   
  8.028     0.1377E-2  0.8902     0.2824     0.3631   
  8.038     0.1371E-2  0.8903     0.2660     0.3518   
  8.048     0.1366E-2  0.8904     0.2486     0.3443   
  8.058     0.1362E-2  0.8906     0.2311     0.3402   
  8.068     0.1359E-2  0.8907     0.2141     0.3391   
  8.078     0.1356E-2  0.8908     0.1982     0.3404   
  8.088     0.1354E-2  0.8910     0.1835     0.3436   
  8.098     0.1353E-2  0.8911     0.1701     0.3482   
  8.108     0.1353E-2  0.8912     0.1581     0.3539   
  8.118     0.1353E-2  0.8914     0.1474     0.3604   
  8.128     0.1354E-2  0.8915     0.1379     0.3674   
  8.138     0.1356E-2  0.8916     0.1294     0.3747   
  8.148     0.1359E-2  0.8918     0.1219     0.3823   
  8.158     0.1363E-2  0.8919     0.1153     0.3899   
  8.168     0.1368E-2  0.8920     0.1094     0.3975   
  8.178     0.1375E-2  0.8922     0.1042     0.4052   
  8.188     0.1382E-2  0.8923     0.9966E-1  0.4128   
  8.198     0.1392E-2  0.8924     0.9563E-1  0.4203   
  8.208     0.1402E-2  0.8926     0.9209E-1  0.4277   
  8.218     0.1415E-2  0.8927     0.8899E-1  0.4350   
  8.228     0.1429E-2  0.8928     0.8629E-1  0.4422   
  8.238     0.1446E-2  0.8930     0.8395E-1  0.4493   
  8.248     0.1466E-2  0.8931     0.8195E-1  0.4563   
  8.258     0.1488E-2  0.8932     0.8027E-1  0.4632   
  8.268     0.1514E-2  0.8934     0.7888E-1  0.4700   
  8.278     0.1543E-2  0.8935     0.7778E-1  0.4768   
  8.288     0.1577E-2  0.8936     0.7695E-1  0.4834   
  8.298     0.1615E-2  0.8938     0.7640E-1  0.4901   
  8.308     0.1659E-2  0.8939     0.7611E-1  0.4966   
  8.318     0.1708E-2  0.8940     0.7610E-1  0.5031   
  8.328     0.1765E-2  0.8941     0.7638E-1  0.5096   
  8.338     0.1828E-2  0.8943     0.7695E-1  0.5160   
  8.348     0.1900E-2  0.8944     0.7783E-1  0.5224   
  8.358     0.1979E-2  0.8945     0.7905E-1  0.5288   
  8.368     0.2065E-2  0.8946     0.8063E-1  0.5351   
  8.378     0.2157E-2  0.8946     0.8261E-1  0.5414   
  8.388     0.2254E-2  0.8947     0.8502E-1  0.5476   
  8.398     0.2351E-2  0.8948     0.8792E-1  0.5537   
  8.408     0.2442E-2  0.8948     0.9135E-1  0.5597   
  8.418     0.2523E-2  0.8948     0.9537E-1  0.5656   
  8.428     0.2585E-2  0.8948     0.1001     0.5711   
  8.438     0.2622E-2  0.8947     0.1055     0.5764   
  8.448     0.2629E-2  0.8947     0.1117     0.5811   
  8.458     0.2607E-2  0.8946     0.1187     0.5852   
  8.468     0.2556E-2  0.8946     0.1266     0.5885   
  8.478     0.2482E-2  0.8946     0.1353     0.5906   
  8.488     0.2391E-2  0.8946     0.1447     0.5913   
  8.498     0.2292E-2  0.8946     0.1546     0.5903   
  8.509     0.2190E-2  0.8947     0.1647     0.5872   
  8.519     0.2089E-2  0.8947     0.1745     0.5817   
  8.529     0.1993E-2  0.8948     0.1833     0.5739   
  8.539     0.1903E-2  0.8949     0.1903     0.5638   
  8.549     0.1822E-2  0.8950     0.1948     0.5518   
  8.559     0.1748E-2  0.8951     0.1964     0.5388   
  8.569     0.1681E-2  0.8952     0.1947     0.5257   
  8.579     0.1622E-2  0.8953     0.1900     0.5134   
  8.589     0.1569E-2  0.8955     0.1826     0.5027   
  8.599     0.1521E-2  0.8956     0.1734     0.4942   
  8.609     0.1479E-2  0.8957     0.1630     0.4879   
  8.619     0.1442E-2  0.8958     0.1522     0.4840   
  8.629     0.1408E-2  0.8960     0.1414     0.4821   
  8.639     0.1378E-2  0.8961     0.1310     0.4820   
  8.649     0.1352E-2  0.8962     0.1214     0.4833   
  8.659     0.1328E-2  0.8963     0.1125     0.4857   
  8.669     0.1306E-2  0.8965     0.1045     0.4889   
  8.679     0.1287E-2  0.8966     0.9730E-1  0.4927   
  8.689     0.1269E-2  0.8967     0.9088E-1  0.4969   
  8.699     0.1253E-2  0.8968     0.8517E-1  0.5015   
  8.709     0.1239E-2  0.8969     0.8011E-1  0.5062   
  8.719     0.1226E-2  0.8970     0.7563E-1  0.5110   
  8.729     0.1214E-2  0.8972     0.7166E-1  0.5159   
  8.739     0.1204E-2  0.8973     0.6815E-1  0.5208   
  8.749     0.1194E-2  0.8974     0.6505E-1  0.5256   
  8.759     0.1186E-2  0.8975     0.6231E-1  0.5305   
  8.769     0.1178E-2  0.8976     0.5990E-1  0.5352   
  8.779     0.1172E-2  0.8977     0.5777E-1  0.5400   
  8.789     0.1166E-2  0.8979     0.5591E-1  0.5446   
  8.799     0.1161E-2  0.8980     0.5428E-1  0.5492   
  8.809     0.1156E-2  0.8981     0.5286E-1  0.5537   
  8.819     0.1153E-2  0.8982     0.5165E-1  0.5582   
  8.829     0.1150E-2  0.8983     0.5062E-1  0.5626   
  8.839     0.1147E-2  0.8984     0.4976E-1  0.5670   
  8.849     0.1146E-2  0.8985     0.4907E-1  0.5713   
  8.859     0.1145E-2  0.8986     0.4854E-1  0.5756   
  8.869     0.1145E-2  0.8988     0.4817E-1  0.5798   
  8.879     0.1146E-2  0.8989     0.4795E-1  0.5840   
  8.889     0.1147E-2  0.8990     0.4789E-1  0.5882   
  8.899     0.1150E-2  0.8991     0.4799E-1  0.5923   
  8.909     0.1153E-2  0.8992     0.4826E-1  0.5965   
  8.919     0.1158E-2  0.8993     0.4870E-1  0.6006   
  8.929     0.1164E-2  0.8994     0.4934E-1  0.6047   
  8.939     0.1171E-2  0.8995     0.5017E-1  0.6088   
  8.949     0.1179E-2  0.8996     0.5122E-1  0.6128   
  8.959     0.1189E-2  0.8998     0.5251E-1  0.6169   
  8.969     0.1201E-2  0.8999     0.5406E-1  0.6209   
  8.979     0.1214E-2  0.9000     0.5591E-1  0.6249   
  8.989     0.1230E-2  0.9001     0.5809E-1  0.6288   
  8.999     0.1249E-2  0.9002     0.6063E-1  0.6326   
  9.009     0.1270E-2  0.9003     0.6358E-1  0.6363   
  9.019     0.1294E-2  0.9004     0.6697E-1  0.6398   
  9.029     0.1322E-2  0.9005     0.7086E-1  0.6430   
  9.039     0.1354E-2  0.9006     0.7527E-1  0.6458   
  9.049     0.1390E-2  0.9007     0.8023E-1  0.6482   
  9.059     0.1431E-2  0.9008     0.8572E-1  0.6499   
  9.069     0.1476E-2  0.9009     0.9172E-1  0.6507   
  9.079     0.1526E-2  0.9010     0.9810E-1  0.6505   
  9.089     0.1579E-2  0.9011     0.1047     0.6490   
  9.099     0.1634E-2  0.9012     0.1111     0.6461   
  9.109     0.1689E-2  0.9012     0.1171     0.6416   
  9.119     0.1742E-2  0.9013     0.1221     0.6356   
  9.129     0.1787E-2  0.9013     0.1257     0.6283   
  9.139     0.1822E-2  0.9013     0.1274     0.6202   
  9.149     0.1842E-2  0.9013     0.1271     0.6117   
  9.159     0.1846E-2  0.9013     0.1247     0.6036   
  9.169     0.1831E-2  0.9013     0.1205     0.5963   
  9.179     0.1801E-2  0.9014     0.1150     0.5904   
  9.189     0.1757E-2  0.9014     0.1085     0.5859   
  9.199     0.1705E-2  0.9014     0.1015     0.5829   
  9.209     0.1647E-2  0.9015     0.9454E-1  0.5814   
  9.219     0.1588E-2  0.9015     0.8776E-1  0.5810   
  9.229     0.1530E-2  0.9016     0.8137E-1  0.5816   
  9.239     0.1475E-2  0.9017     0.7548E-1  0.5830   
  9.249     0.1424E-2  0.9018     0.7012E-1  0.5850   
  9.259     0.1377E-2  0.9018     0.6531E-1  0.5875   
  9.269     0.1335E-2  0.9019     0.6100E-1  0.5902   
  9.279     0.1297E-2  0.9020     0.5717E-1  0.5932   
  9.289     0.1263E-2  0.9021     0.5377E-1  0.5963   
  9.299     0.1234E-2  0.9022     0.5076E-1  0.5995   
  9.309     0.1207E-2  0.9024     0.4809E-1  0.6027   
  9.319     0.1184E-2  0.9025     0.4573E-1  0.6060   
  9.329     0.1164E-2  0.9026     0.4365E-1  0.6092   
  9.339     0.1146E-2  0.9027     0.4180E-1  0.6125   
  9.349     0.1130E-2  0.9028     0.4017E-1  0.6157   
  9.359     0.1116E-2  0.9029     0.3874E-1  0.6188   
  9.369     0.1104E-2  0.9030     0.3748E-1  0.6220   
  9.379     0.1094E-2  0.9031     0.3637E-1  0.6250   
  9.389     0.1085E-2  0.9032     0.3540E-1  0.6281   
  9.399     0.1078E-2  0.9033     0.3457E-1  0.6311   
  9.409     0.1072E-2  0.9034     0.3385E-1  0.6341   
  9.419     0.1067E-2  0.9035     0.3325E-1  0.6370   
  9.429     0.1064E-2  0.9036     0.3275E-1  0.6399   
  9.439     0.1062E-2  0.9037     0.3235E-1  0.6428   
  9.449     0.1061E-2  0.9038     0.3205E-1  0.6456   
  9.459     0.1061E-2  0.9039     0.3185E-1  0.6484   
  9.469     0.1063E-2  0.9040     0.3175E-1  0.6513   
  9.479     0.1067E-2  0.9041     0.3174E-1  0.6541   
  9.489     0.1071E-2  0.9042     0.3183E-1  0.6568   
  9.499     0.1078E-2  0.9043     0.3202E-1  0.6596   
  9.510     0.1086E-2  0.9044     0.3233E-1  0.6624   
  9.520     0.1096E-2  0.9045     0.3274E-1  0.6651   
  9.530     0.1108E-2  0.9046     0.3329E-1  0.6679   
  9.540     0.1123E-2  0.9047     0.3397E-1  0.6706   
  9.550     0.1140E-2  0.9048     0.3480E-1  0.6734   
  9.560     0.1160E-2  0.9049     0.3580E-1  0.6761   
  9.570     0.1183E-2  0.9050     0.3698E-1  0.6788   
  9.580     0.1208E-2  0.9050     0.3837E-1  0.6815   
  9.590     0.1236E-2  0.9051     0.3998E-1  0.6841   
  9.600     0.1266E-2  0.9052     0.4186E-1  0.6866   
  9.610     0.1296E-2  0.9053     0.4401E-1  0.6891   
  9.620     0.1326E-2  0.9053     0.4648E-1  0.6914   
  9.630     0.1352E-2  0.9054     0.4929E-1  0.6934   
  9.640     0.1374E-2  0.9054     0.5246E-1  0.6952   
  9.650     0.1389E-2  0.9055     0.5599E-1  0.6966   
  9.660     0.1394E-2  0.9055     0.5988E-1  0.6975   
  9.670     0.1390E-2  0.9056     0.6406E-1  0.6978   
  9.680     0.1375E-2  0.9056     0.6844E-1  0.6973   
  9.690     0.1352E-2  0.9056     0.7285E-1  0.6958   
  9.700     0.1323E-2  0.9057     0.7708E-1  0.6934   
  9.710     0.1290E-2  0.9057     0.8081E-1  0.6899   
  9.720     0.1256E-2  0.9058     0.8372E-1  0.6855   
  9.730     0.1221E-2  0.9059     0.8553E-1  0.6803   
  9.740     0.1187E-2  0.9059     0.8600E-1  0.6748   
  9.750     0.1156E-2  0.9060     0.8507E-1  0.6692   
  9.760     0.1127E-2  0.9061     0.8284E-1  0.6641   
  9.770     0.1101E-2  0.9062     0.7953E-1  0.6597   
  9.780     0.1077E-2  0.9063     0.7545E-1  0.6563   
  9.790     0.1056E-2  0.9064     0.7092E-1  0.6539   
  9.800     0.1038E-2  0.9065     0.6624E-1  0.6525   
  9.810     0.1021E-2  0.9066     0.6162E-1  0.6519   
  9.820     0.1006E-2  0.9067     0.5721E-1  0.6521   
  9.830     0.9935E-3  0.9067     0.5310E-1  0.6529   
  9.840     0.9822E-3  0.9068     0.4935E-1  0.6541   
  9.850     0.9723E-3  0.9069     0.4596E-1  0.6557   
  9.860     0.9636E-3  0.9070     0.4292E-1  0.6575   
  9.870     0.9561E-3  0.9071     0.4021E-1  0.6595   
  9.880     0.9497E-3  0.9072     0.3780E-1  0.6616   
  9.890     0.9442E-3  0.9073     0.3566E-1  0.6638   
  9.900     0.9396E-3  0.9074     0.3377E-1  0.6660   
  9.910     0.9359E-3  0.9075     0.3210E-1  0.6683   
  9.920     0.9330E-3  0.9076     0.3062E-1  0.6705   
  9.930     0.9310E-3  0.9077     0.2932E-1  0.6728   
  9.940     0.9297E-3  0.9077     0.2816E-1  0.6750   
  9.950     0.9293E-3  0.9078     0.2714E-1  0.6772   
  9.960     0.9296E-3  0.9079     0.2624E-1  0.6794   
  9.970     0.9309E-3  0.9080     0.2545E-1  0.6816   
  9.980     0.9330E-3  0.9081     0.2476E-1  0.6837   
  9.990     0.9361E-3  0.9082     0.2416E-1  0.6858   
  10.00     0.9403E-3  0.9083     0.2364E-1  0.6879   
# 
# YAMBO@ermengarda x 001 CPUs * 04/06/2013  00:12 [start]
#                               04/06/2013  00:13 [end]
# 
# Cpu Timing [Min/Max/Average]: 43s/43s/43s
#
# .-Input file : INPUTS/03_BSE
# | optics                       # [R OPT] Optics
# | bse                          # [R BSE] Bethe Salpeter Equation.
# | bsk                          # [R BSK] Bethe Salpeter Equation kernel
# | bss                          # [R BSS] Bethe Salpeter Equation solver
# | em1s                         # [R Xs] Static Inverse Dielectric Matrix
# | BoseTemp= 0.000000     eV    # Bosonic Temperature
# | Chimod= "Hartree"            # [X] IP/Hartree/ALDA/LRC/BSfxc
# | BSEmod= "resonant"           # [BSE] resonant/causal/coupling
# | BSKmod= "SEX"                # [BSE] IP/Hartree/HF/ALDA/SEX/BSfxc
# | BSSmod= "d"                  # [BSS] (h)aydock/(d)iagonalization/(i)nversion/(t)ddft`
# | BSENGexx=  8493        RL    # [BSK] Exchange components
# | BSENGBlk= 111          RL    # [BSK] Screened interaction block size
# | % KfnQP_E
# |  3.500000 | 1.000000 | 1.000000 |        # [EXTQP BSK BSS] E parameters  (c/v) eV|adim|adim
# | %
# | % BEnRange
# |   0.00000 | 10.00000 | eV    # [BSS] Energy range
# | %
# | % BDmRange
# |   0.10000 |  0.10000 | eV    # [BSS] Damping range
# | %
# | BEnSteps= 1000               # [BSS] Energy steps
# | % BLongDir
# | 0.1000E-4 | 0.000    | 0.000    |        # [BSS] [cc] Electric Field
# | %
# | % BSEBands
# |  1 | 2 |                     # [BSK] Bands range
# | %
# | WRbsWF                       # [BSS] Write to disk excitonic the FWs
# | % QpntsRXs
# |    1 |  41 |                 # [Xs] Transferred momenta
# | %
# | % BndsRnXs
# |  1 | 2 |                     # [Xs] Polarization function bands
# | %
# | NGsBlkXs= 119          RL    # [Xs] Response block size
# | % LongDrXs
# | 0.1000E-4 | 0.000    | 0.000    |        # [Xs] [cc] Electric Field
# | %
