#                                                           
#  __  __   ________   ___ __ __    _______   ______        
# /_/\/_/\ /_______/\ /__//_//_/\ /_______/\ /_____/\       
# \ \ \ \ \\::: _  \ \\::\| \| \ \\::: _  \ \\:::_ \ \      
#  \:\_\ \ \\::(_)  \ \\:.      \ \\::(_)  \/_\:\ \ \ \     
#   \::::_\/ \:: __  \ \\:.\-/\  \ \\::  _  \ \\:\ \ \ \    
#     \::\ \  \:.\ \  \ \\. \  \  \ \\::(_)  \ \\:\_\ \ \   
#      \__\/   \__\/\__\/ \__\/ \__\/ \_______\/ \_____\/   
#                                                           
#                                                           
#        Version 4.3.0 Revision 15624 Hash 7ed12fb          
#                      MPI+SLK Build                        
#                http://www.yambo-code.org                  
#
# Absorption @ Q(1) [q->0 direction] :0.1000E-4  0.000     0.000   
#
#
#
# - The Green`s function is Retarded -
# - Using the Length Gauge -
# - [r,Vnl] is *NOT* included -
#
#
#    Diamagnetic term
#    A [nel]
#    -4.485439
#
#    E/ev[1]      EPS-Im[2]    EPS-Re[3]
#
   0.2000        1994.        1263.   
   0.2195        1998.        1037.   
   0.2391        1974.        826.4   
   0.2586        1927.        634.6   
   0.2782        1862.        463.3   
   0.2977        1784.        313.0   
   0.3173        1698.        183.2   
   0.3368        1607.        72.95   
   0.3564        1514.       -19.44   
   0.3759        1421.       -95.75   
   0.3955        1331.       -157.9   
   0.4150        1244.       -207.7   
   0.4346        1161.       -247.0   
   0.4541        1084.       -277.3   
   0.4737        1011.       -300.2   
   0.4932        943.3       -316.8   
   0.5128        880.6       -328.4   
   0.5323        822.8       -335.9   
   0.5519        769.7       -340.1   
   0.5714        720.8       -341.7   
   0.5910        676.0       -341.2   
   0.6105        634.8       -339.2   
      0.6301     597.0566    -336.0008
      0.6496     562.3198    -332.0116
      0.6692     530.3126    -327.4503
      0.6887     500.7372    -322.5104
      0.7083     473.3160    -317.3307
      0.7278     447.7956    -312.0018
      0.7474     423.9544    -306.5797
      0.7669     401.6006    -301.0880
      0.7865     380.5760    -295.5298
      0.8060     360.7545    -289.8990
      0.8256     342.0372    -284.1828
      0.8451     324.3496    -278.3712
      0.8647     307.6350    -272.4611
      0.8842     291.8485    -266.4562
      0.9038     276.9532    -260.3665
      0.9233     262.9160    -254.2106
      0.9429     249.7044    -248.0110
      0.9624     237.2857    -241.7917
      0.9820     225.6237    -235.5797
      1.0015     214.6840    -229.4000
      1.0211     204.4275    -223.2759
      1.0406     194.8177    -217.2280
      1.0602     185.8165    -211.2754
      1.0797     177.3871    -205.4330
      1.0992     169.4935    -199.7127
      1.1188     162.1010    -194.1263
      1.1383     155.1764    -188.6820
      1.1579     148.6884    -183.3857
      1.1774     142.6060    -178.2424
      1.1970     136.9007    -173.2549
      1.2165     131.5459    -168.4246
      1.2361     126.5153    -163.7521
      1.2556     121.7860    -159.2355
      1.2752     117.3355    -154.8739
      1.2947     113.1432    -150.6650
      1.3143     109.1914    -146.6058
      1.3338     105.4619    -142.6934
      1.3534     101.9384    -138.9261
      1.3729      98.6058    -135.3006
      1.3925      95.4480    -131.8145
      1.4120      92.4505    -128.4649
      1.4316      89.5978    -125.2486
      1.4511      86.8747    -122.1608
      1.4707      84.2669    -119.1948
      1.4902      81.7607    -116.3440
      1.5098      79.3439    -113.5998
      1.5293      77.0059    -110.9510
      1.5489      74.7386    -108.3873
      1.5684      72.5363    -105.8970
      1.5880      70.3959    -103.4698
      1.6075      68.3165    -101.0957
     1.62707     66.29876    -98.76580
     1.64662     64.34480    -96.47353
     1.66617     62.45805    -94.21455
     1.68571     60.64158    -91.98614
     1.70526     58.89853    -89.78633
     1.72481     57.23151    -87.61575
     1.74436     55.64251    -85.47550
     1.76391     54.13286    -83.36775
     1.78346     52.70310    -81.29520
     1.80301     51.35255    -79.26065
     1.82256     50.08010    -77.26759
     1.84211     48.88385    -75.31911
     1.86165     47.76111    -73.41884
     1.88120     46.70872    -71.56947
     1.90075     45.72258    -69.77433
     1.92030     44.79824    -68.03609
     1.93985     43.93033    -66.35686
     1.95940     43.11308    -64.73825
     1.97895     42.34027    -63.18143
     1.99850     41.60509    -61.68621
     2.01805     40.90051    -60.25185
     2.03759     40.21947    -58.87578
     2.05714     39.55544    -57.55539
     2.07669     38.90220    -56.28533
     2.09624     38.25446    -55.06033
     2.11579     37.60847    -53.87381
     2.13534     36.96153    -52.71866
     2.15489     36.31259    -51.58844
     2.17444     35.66208    -50.47551
     2.19398     35.01167    -49.37429
     2.21353     34.36418    -48.27907
     2.23308     33.72298    -47.18561
     2.25263     33.09214    -46.09086
     2.27218     32.47567    -44.99290
     2.29173     31.87760    -43.89067
     2.31128     31.30142    -42.78381
     2.33083     30.75050    -41.67288
     2.35038     30.22756    -40.55859
     2.36992     29.73492    -39.44205
     2.38947     29.27445    -38.32495
     2.40902     28.84791    -37.20831
     2.42857     28.45631    -36.09410
     2.44812     28.10073    -34.98307
     2.46767     27.78187    -33.87726
     2.48722     27.50041    -32.77788
     2.50677     27.25719    -31.68622
     2.52632     27.05253    -30.60354
     2.54586     26.88692    -29.53126
     2.56541     26.76092    -28.47075
     2.58496     26.67504    -27.42338
     2.60451     26.62978    -26.39058
     2.62406     26.62570    -25.37401
     2.64361     26.66323    -24.37553
     2.66316     26.74320    -23.39676
     2.68271     26.86568    -22.44017
     2.70226     27.03131    -21.50783
     2.72180     27.24028    -20.60274
     2.74135     27.49261    -19.72757
     2.76090     27.78810    -18.88589
     2.78045     28.12634    -18.08097
     2.80000     28.50601    -17.31672
     2.81955     28.92582    -16.59694
     2.83910     29.38342    -15.92607
     2.85865     29.87591    -15.30808
     2.87820     30.39962    -14.74675
     2.89774     30.95010    -14.24606
     2.91729     31.52190    -13.80884
     2.93684     32.10915    -13.43751
     2.95639     32.70531    -13.13332
     2.97594     33.30355    -12.89671
     2.99549     33.89680    -12.72659
     3.01504     34.47868    -12.62084
     3.03459     35.04288    -12.57617
     3.05414     35.58450    -12.58830
     3.07368     36.09924    -12.65239
     3.09323     36.58431    -12.76330
     3.11278     37.03797    -12.91591
     3.13233     37.45951    -13.10548
     3.15188     37.84895    -13.32778
     3.17143     38.20693    -13.57938
     3.19098     38.53385    -13.85765
     3.21053     38.83091    -14.16061
     3.23008     39.09822    -14.48651
     3.24962     39.33608    -14.83441
     3.26917     39.54416    -15.20309
     3.28872     39.72194    -15.59158
     3.30827     39.86852    -15.99846
     3.32782     39.98296    -16.42229
     3.34737     40.06401    -16.86120
     3.36692     40.11075    -17.31287
     3.38647     40.12251    -17.77476
     3.40602     40.09863    -18.24420
     3.42556     40.03921    -18.71828
     3.44511     39.94477    -19.19381
     3.46466     39.81614    -19.66805
     3.48421     39.65475    -20.13850
     3.50376     39.46223    -20.60313
     3.52331     39.24060    -21.06037
     3.54286     38.99139    -21.50914
     3.56241     38.71625    -21.94917
     3.58195     38.41630    -22.38002
     3.60150     38.09206    -22.80161
     3.62105     37.74333    -23.21372
     3.64060     37.36982    -23.61583
     3.66015     36.97070    -24.00672
     3.67970     36.54540    -24.38464
     3.69925     36.09330    -24.74707
     3.71880     35.61429    -25.09088
     3.73835     35.10906    -25.41250
     3.75789     34.57927    -25.70844
     3.77744     34.02736    -25.97489
     3.79699     33.45653    -26.20855
     3.81654     32.87115    -26.40677
     3.83609     32.27588    -26.56758
     3.85564     31.67601    -26.69011
     3.87519     31.07677    -26.77436
     3.89474     30.48347    -26.82163
     3.91429     29.90107    -26.83366
     3.93383     29.33401    -26.81367
     3.95338     28.78597    -26.76536
     3.97293     28.25983    -26.69267
     3.99248     27.75749    -26.60043
     4.01203     27.28007    -26.49317
     4.03158     26.82773    -26.37535
     4.05113     26.39988    -26.25147
     4.07068     25.99512    -26.12551
     4.09023     25.61150    -26.00093
     4.10977     25.24658    -25.88071
     4.12932     24.89740    -25.76694
     4.14887     24.56113    -25.66152
     4.16842     24.23456    -25.56519
     4.18797     23.91473    -25.47846
     4.20752     23.59876    -25.40100
     4.22707     23.28407    -25.33240
     4.24662     22.96843    -25.27159
     4.26617     22.64967    -25.21723
     4.28571     22.32635    -25.16790
     4.30526     21.99695    -25.12164
     4.32481     21.66047    -25.07704
     4.34436     21.31598    -25.03209
     4.36391     20.96315    -24.98453
     4.38346     20.60186    -24.93252
     4.40301     20.23213    -24.87398
     4.42256     19.85453    -24.80653
     4.44211     19.47021    -24.72863
     4.46165     19.08020    -24.63822
     4.48120     18.68629    -24.53374
     4.50075     18.29031    -24.41409
     4.52030     17.89433    -24.27828
     4.53985     17.50064    -24.12574
     4.55940     17.11146    -23.95661
     4.57895     16.72908    -23.77108
     4.59850     16.35556    -23.57001
     4.61804     15.99282    -23.35432
     4.63759     15.64241    -23.12538
     4.65714     15.30576    -22.88469
     4.67669     14.98400    -22.63390
     4.69624     14.67787    -22.37465
     4.71579     14.38787    -22.10894
     4.73534     14.11422    -21.83824
     4.75489     13.85698    -21.56435
     4.77444     13.61589    -21.28886
     4.79398     13.39052    -21.01317
     4.81353     13.18037    -20.73875
     4.83308     12.98469    -20.46658
     4.85263     12.80279    -20.19775
     4.87218     12.63378    -19.93320
     4.89173     12.47690    -19.67360
     4.91128     12.33127    -19.41943
     4.93083     12.19616    -19.17132
     4.95038     12.07071    -18.92962
     4.96992     11.95426    -18.69456
     4.98947     11.84612    -18.46658
     5.00902     11.74566    -18.24589
     5.02857     11.65224    -18.03275
     5.04812     11.56530    -17.82752
     5.06767     11.48412    -17.63052
     5.08722     11.40799    -17.44199
     5.10677     11.33613    -17.26232
     5.12632     11.26761    -17.09174
     5.14586     11.20141    -16.93046
     5.16541     11.13641    -16.77860
     5.18496     11.07132    -16.63608
     5.20451     11.00495    -16.50248
     5.22406     10.93606    -16.37738
     5.24361     10.86331    -16.26006
     5.26316     10.78559    -16.14938
     5.28271     10.70197    -16.04428
     5.30226     10.61174    -15.94315
     5.32180     10.51438    -15.84461
     5.34135     10.40981    -15.74687
     5.36090     10.29813    -15.64832
     5.38045     10.17981    -15.54739
     5.40000     10.05562    -15.44286
     5.41955      9.92653    -15.33328
     5.43910      9.79368    -15.21771
     5.45865      9.65841    -15.09538
     5.47820      9.52198    -14.96583
     5.49774      9.38580    -14.82881
     5.51729      9.25118    -14.68435
     5.53684      9.11934    -14.53253
     5.55639      8.99144    -14.37386
     5.57594      8.86845    -14.20885
     5.59549      8.75132    -14.03808
     5.61504      8.64074    -13.86224
     5.63459      8.53733    -13.68201
     5.65414      8.44160    -13.49836
     5.67368      8.35392    -13.31192
     5.69323      8.27455    -13.12356
     5.71278      8.20368    -12.93407
     5.73233      8.14138    -12.74430
     5.75188      8.08766    -12.55481
     5.77143      8.04245    -12.36647
     5.79098      8.00567    -12.17994
     5.81053      7.97703    -11.99584
     5.83008      7.95638    -11.81479
     5.84962      7.94340    -11.63720
     5.86917      7.93777    -11.46405
     5.88872      7.93911    -11.29543
     5.90827      7.94697    -11.13193
     5.92782      7.96094    -10.97388
     5.94737      7.98060    -10.82165
     5.96692      8.00548    -10.67552
     5.98647      8.03510    -10.53568
     6.00601      8.06902    -10.40235
     6.02556      8.10682    -10.27561
     6.04511      8.14801    -10.15559
     6.06466      8.19222    -10.04236
    6.084210     8.239141    -9.935931
    6.103759     8.288332    -9.836395
    6.123308     8.339561    -9.743732
    6.142857     8.392441    -9.658010
    6.162406     8.446776    -9.579314
    6.181955     8.502199    -9.507736
    6.201504     8.558468    -9.443303
    6.221053     8.615184    -9.386237
    6.240601     8.671999    -9.336640
    6.260150     8.728478    -9.294598
    6.279699     8.784132    -9.260318
    6.299248     8.838492    -9.233803
    6.318797     8.890857    -9.215119
    6.338346     8.940682    -9.204283
    6.357895     8.987352    -9.201159
    6.377443     9.030081    -9.205604
    6.396993     9.068246    -9.217345
    6.416541     9.101136    -9.235998
    6.436090     9.128088    -9.261152
    6.455639     9.148450    -9.292184
    6.475188     9.161747    -9.328547
    6.494737     9.167365    -9.369464
    6.514286     9.165027    -9.414142
    6.533834     9.154441    -9.461749
    6.553383     9.135424    -9.511436
    6.572932     9.107904    -9.562347
    6.592481     9.071954    -9.613592
    6.612030     9.027781    -9.664417
    6.631579     8.975616    -9.714004
    6.651128     8.915840    -9.761746
    6.670677     8.848783    -9.807013
    6.690226     8.774905    -9.849257
    6.709774     8.694598    -9.888045
    6.729323     8.608303    -9.922956
    6.748872     8.516449    -9.953661
    6.768421     8.419460    -9.979830
     6.78797      8.31773    -10.00117
     6.80752      8.21169    -10.01738
     6.82707      8.10168    -10.02823
     6.84662      7.98820    -10.03342
     6.86617      7.87174    -10.03278
     6.88571      7.75279    -10.02602
     6.90526      7.63181    -10.01299
    6.924812     7.509377    -9.993573
    6.944361     7.386044    -9.967656
    6.963910     7.262485    -9.935279
    6.983459     7.139142    -9.896480
    7.003008     7.016667    -9.851277
    7.022557     6.895620    -9.799913
    7.042106     6.776502    -9.742640
    7.061654     6.659835    -9.679662
    7.081203     6.546012    -9.611418
    7.100752     6.435483    -9.538197
    7.120301     6.328571    -9.460394
    7.139850     6.225582    -9.378466
    7.159399     6.126761    -9.292866
    7.178947     6.032277    -9.203989
    7.198497     5.942285    -9.112365
    7.218046     5.856831    -9.018387
    7.237594     5.775963    -8.922482
    7.257143     5.699652    -8.825168
    7.276692     5.627813    -8.726739
    7.296241     5.560342    -8.627657
    7.315789     5.497117    -8.528223
    7.335339     5.437909    -8.428719
    7.354887     5.382543    -8.329479
    7.374436     5.330793    -8.230668
    7.393985     5.282416    -8.132518
    7.413534     5.237168    -8.035131
    7.433083     5.194828    -7.938583
    7.452632     5.155150    -7.843016
    7.472181     5.117929    -7.748342
    7.491729     5.082955    -7.654560
    7.511279     5.050084    -7.561675
    7.530828     5.019214    -7.469568
    7.550376     4.990203    -7.378237
    7.569925     4.963028    -7.287481
    7.589474     4.937655    -7.197298
    7.609023     4.914081    -7.107640
    7.628572     4.892353    -7.018418
    7.648120     4.872523    -6.929579
    7.667669     4.854655    -6.841233
    7.687218     4.838824    -6.753281
    7.706768     4.825093    -6.665865
    7.726316     4.813537    -6.579076
    7.745865     4.804205    -6.493007
    7.765414     4.797102    -6.407763
    7.784963     4.792248    -6.323508
    7.804512     4.789611    -6.240396
    7.824060     4.789125    -6.158595
    7.843609     4.790710    -6.078197
    7.863158     4.794259    -5.999417
    7.882707     4.799629    -5.922307
    7.902256     4.806690    -5.846997
    7.921804     4.815242    -5.773544
    7.941354     4.825122    -5.701918
    7.960903     4.836158    -5.632202
    7.980451     4.848159    -5.564377
    8.000000     4.860986    -5.498343
# 
# 07/24/2018 at 15:52 YAMBO_RT @ NewLaptop [start]
# 07/24/2018 at 15:52                      [end]
#
# .-Input file : yambo.in
# | optics                         # [R OPT] Optics
# | bse                            # [R BSE] Bethe Salpeter Equation.
# | BoseTemp= 0.000000     eV      # Bosonic Temperature
# | FFTGvecs= 1721         RL      # [FFT] Plane-waves
# | BSEmod= "retarded"             # [BSE] resonant/retarded/coupling
# | BSKmod= "IP"                   # [BSE] IP/Hartree/HF/ALDA/SEX/BSfxc
# | #EvalKerr                      # [BSE] Compute the Kerr effect
# | #AnHall                        # [BSE] Add the anomalous Hall effect to eps if using length gauge
# | % BEnRange
# |  0.200000 | 8.000000 | eV      # [BSS] Energy range
# | %
# | % BDmRange
# |  0.300000 | 0.500000 | eV      # [BSS] Damping range
# | %
# | BEnSteps=  400                 # [BSS] Energy steps
# | % BLongDir
# | 0.1000E-4 | 0.000    | 0.000    |        # [BSS] [cc] Electric Field
# | %
# | % BSEBands
# |   1 | 13 |                     # [BSK] Bands range
# | %
