#                                                           
#  __  __   ________   ___ __ __    _______   ______        
# /_/\/_/\ /_______/\ /__//_//_/\ /_______/\ /_____/\       
# \ \ \ \ \\::: _  \ \\::\| \| \ \\::: _  \ \\:::_ \ \      
#  \:\_\ \ \\::(_)  \ \\:.      \ \\::(_)  \/_\:\ \ \ \     
#   \::::_\/ \:: __  \ \\:.\-/\  \ \\::  _  \ \\:\ \ \ \    
#     \::\ \  \:.\ \  \ \\. \  \  \ \\::(_)  \ \\:\_\ \ \   
#      \__\/   \__\/\__\/ \__\/ \__\/ \_______\/ \_____\/   
#                                                           
#                                                           
#        Version 4.3.0 Revision 15624 Hash 7ed12fb          
#                      MPI+SLK Build                        
#                http://www.yambo-code.org                  
#
# Absorption @ Q(1) [q->0 direction] : 1.000000  0.000000  0.000000
#
#
#
# - The Green`s function is Retarded -
# - Using the Velocity Gauge -
# - [r,Vnl] is *NOT* included -
#
#
#    Diamagnetic term
#    A [nel]
#    -4.485439
#
#    E/ev[1]      EPS-Im[2]    EPS-Re[3]
#
   0.2000        1994.        1263.   
   0.2195        1998.        1037.   
   0.2391        1974.        826.4   
   0.2586        1927.        634.6   
   0.2782        1862.        463.3   
   0.2977        1784.        313.0   
   0.3173        1698.        183.2   
   0.3368        1607.        72.95   
   0.3564        1514.       -19.44   
   0.3759        1421.       -95.76   
   0.3955        1331.       -157.9   
   0.4150        1244.       -207.7   
   0.4346        1162.       -247.0   
   0.4541        1084.       -277.3   
   0.4737        1011.       -300.2   
   0.4932        943.3       -316.8   
   0.5128        880.6       -328.4   
   0.5323        822.9       -335.9   
   0.5519        769.7       -340.1   
   0.5714        720.8       -341.7   
   0.5910        676.0       -341.2   
   0.6105        634.8       -339.2   
      0.6301     597.0565    -336.0000
      0.6496     562.3224    -332.0133
      0.6692     530.3110    -327.4490
      0.6887     500.7397    -322.5124
      0.7083     473.3171    -317.3309
      0.7278     447.7948    -312.0006
      0.7474     423.9543    -306.5791
      0.7669     401.6023    -301.0888
      0.7865     380.5755    -295.5288
      0.8060     360.7535    -289.8976
      0.8256     342.0361    -284.1814
      0.8451     324.3487    -278.3706
      0.8647     307.6371    -272.4641
      0.8842     291.8482    -266.4561
      0.9038     276.9538    -260.3674
      0.9233     262.9159    -254.2103
      0.9429     249.7085    -248.0158
      0.9624     237.2836    -241.7894
      0.9820     225.6262    -235.5830
      1.0015     214.6866    -229.4044
      1.0211     204.4280    -223.2769
      1.0406     194.8170    -217.2275
      1.0602     185.8167    -211.2756
      1.0797     177.3868    -205.4321
      1.0992     169.4920    -199.7105
      1.1188     162.1018    -194.1280
      1.1383     155.1768    -188.6830
      1.1579     148.6880    -183.3858
      1.1774     142.6065    -178.2435
      1.1970     136.9005    -173.2545
      1.2165     131.5457    -168.4248
      1.2361     126.5146    -163.7506
      1.2556     121.7860    -159.2359
      1.2752     117.3353    -154.8744
      1.2947     113.1448    -150.6679
      1.3143     109.1916    -146.6067
      1.3338     105.4633    -142.6967
      1.3534     101.9391    -138.9275
      1.3729      98.6054    -135.2999
      1.3925      95.4488    -131.8159
      1.4120      92.4513    -128.4663
      1.4316      89.5984    -125.2496
      1.4511      86.8759    -122.1625
      1.4707      84.2673    -119.1956
      1.4902      81.7612    -116.3452
      1.5098      79.3438    -113.5997
      1.5293      77.0059    -110.9510
      1.5489      74.7387    -108.3873
      1.5684      72.5364    -105.8971
      1.5880      70.3955    -103.4686
      1.6075      68.3165    -101.0952
     1.62707     66.29875    -98.76563
     1.64662     64.34560    -96.47495
     1.66617     62.45858    -94.21563
     1.68571     60.64202    -91.98694
     1.70526     58.89843    -89.78593
     1.72481     57.23174    -87.61588
     1.74436     55.64291    -85.47601
     1.76391     54.13343    -83.36839
     1.78346     52.70292    -81.29434
     1.80301     51.35251    -79.26016
     1.82256     50.08009    -77.26694
     1.84211     48.88441    -75.32013
     1.86165     47.76145    -73.41920
     1.88120     46.70899    -71.56976
     1.90075     45.72265    -69.77441
     1.92030     44.79865    -68.03752
     1.93985     43.93036    -66.35693
     1.95940     43.11282    -64.73736
     1.97895     42.34025    -63.18113
     1.99850     41.60501    -61.68606
     2.01805     40.90067    -60.25235
     2.03759     40.21939    -58.87577
     2.05714     39.55575    -57.55602
     2.07669     38.90247    -56.28605
     2.09624     38.25462    -55.06038
     2.11579     37.60883    -53.87477
     2.13534     36.96178    -52.71936
     2.15489     36.31286    -51.58902
     2.17444     35.66217    -50.47547
     2.19398     35.01184    -49.37461
     2.21353     34.36415    -48.27875
     2.23308     33.72289    -47.18517
     2.25263     33.09226    -46.09089
     2.27218     32.47583    -44.99318
     2.29173     31.87772    -43.89103
     2.31128     31.30155    -42.78426
     2.33083     30.75060    -41.67319
     2.35038     30.22738    -40.55817
     2.36992     29.73466    -39.44137
     2.38947     29.27437    -38.32438
     2.40902     28.84790    -37.20803
     2.42857     28.45621    -36.09338
     2.44812     28.10075    -34.98319
     2.46767     27.78194    -33.87730
     2.48722     27.50051    -32.77780
     2.50677     27.25727    -31.68634
     2.52632     27.05269    -30.60402
     2.54586     26.88708    -29.53170
     2.56541     26.76100    -28.47083
     2.58496     26.67528    -27.42425
     2.60451     26.62982    -26.39106
     2.62406     26.62586    -25.37477
     2.64361     26.66346    -24.37585
     2.66316     26.74352    -23.39779
     2.68271     26.86572    -22.44004
     2.70226     27.03147    -21.50836
     2.72180     27.24028    -20.60277
     2.74135     27.49256    -19.72771
     2.76090     27.78804    -18.88561
     2.78045     28.12614    -18.08023
     2.80000     28.50606    -17.31676
     2.81955     28.92592    -16.59734
     2.83910     29.38340    -15.92614
     2.85865     29.87604    -15.30831
     2.87820     30.39989    -14.74729
     2.89774     30.95011    -14.24588
     2.91729     31.52190    -13.80855
     2.93684     32.10923    -13.43744
     2.95639     32.70531    -13.13295
     2.97594     33.30375    -12.89723
     2.99549     33.89682    -12.72637
     3.01504     34.47870    -12.62060
     3.03459     35.04293    -12.57664
     3.05414     35.58449    -12.58822
     3.07368     36.09917    -12.65225
     3.09323     36.58436    -12.76352
     3.11278     37.03810    -12.91616
     3.13233     37.45960    -13.10540
     3.15188     37.84894    -13.32786
     3.17143     38.20683    -13.57936
     3.19098     38.53377    -13.85760
     3.21053     38.83080    -14.16052
     3.23008     39.09808    -14.48612
     3.24962     39.33590    -14.83422
     3.26917     39.54404    -15.20275
     3.28872     39.72192    -15.59162
     3.30827     39.86847    -15.99846
     3.32782     39.98290    -16.42197
     3.34737     40.06392    -16.86089
     3.36692     40.11064    -17.31275
     3.38647     40.12237    -17.77481
     3.40602     40.09845    -18.24404
     3.42556     40.03917    -18.71814
     3.44511     39.94467    -19.19359
     3.46466     39.81608    -19.66778
     3.48421     39.65466    -20.13860
     3.50376     39.46225    -20.60304
     3.52331     39.24050    -21.06035
     3.54286     38.99145    -21.50897
     3.56241     38.71640    -21.94902
     3.58195     38.41638    -22.38005
     3.60150     38.09200    -22.80162
     3.62105     37.74322    -23.21356
     3.64060     37.36971    -23.61576
     3.66015     36.97065    -24.00665
     3.67970     36.54538    -24.38450
     3.69925     36.09312    -24.74654
     3.71880     35.61408    -25.09038
     3.73835     35.10897    -25.41234
     3.75789     34.57932    -25.70834
     3.77744     34.02724    -25.97450
     3.79699     33.45651    -26.20842
     3.81654     32.87124    -26.40701
     3.83609     32.27591    -26.56763
     3.85564     31.67593    -26.68994
     3.87519     31.07682    -26.77446
     3.89474     30.48348    -26.82134
     3.91429     29.90109    -26.83331
     3.93383     29.33408    -26.81366
     3.95338     28.78598    -26.76535
     3.97293     28.25976    -26.69273
     3.99248     27.75753    -26.60047
     4.01203     27.28009    -26.49310
     4.03158     26.82775    -26.37543
     4.05113     26.39985    -26.25140
     4.07068     25.99510    -26.12521
     4.09023     25.61153    -26.00080
     4.10977     25.24654    -25.88047
     4.12932     24.89750    -25.76683
     4.14887     24.56119    -25.66144
     4.16842     24.23451    -25.56514
     4.18797     23.91466    -25.47854
     4.20752     23.59871    -25.40103
     4.22707     23.28412    -25.33231
     4.24662     22.96841    -25.27142
     4.26617     22.64986    -25.21737
     4.28571     22.32641    -25.16770
     4.30526     21.99701    -25.12145
     4.32481     21.66051    -25.07690
     4.34436     21.31607    -25.03198
     4.36391     20.96315    -24.98436
     4.38346     20.60186    -24.93261
     4.40301     20.23214    -24.87376
     4.42256     19.85463    -24.80654
     4.44211     19.47022    -24.72860
     4.46165     19.08030    -24.63820
     4.48120     18.68636    -24.53401
     4.50075     18.29033    -24.41396
     4.52030     17.89441    -24.27840
     4.53985     17.50069    -24.12571
     4.55940     17.11159    -23.95680
     4.57895     16.72915    -23.77115
     4.59850     16.35568    -23.57027
     4.61804     15.99287    -23.35440
     4.63759     15.64247    -23.12558
     4.65714     15.30580    -22.88470
     4.67669     14.98405    -22.63402
     4.69624     14.67790    -22.37470
     4.71579     14.38790    -22.10891
     4.73534     14.11425    -21.83835
     4.75489     13.85702    -21.56438
     4.77444     13.61593    -21.28893
     4.79398     13.39057    -21.01314
     4.81353     13.18036    -20.73868
     4.83308     12.98471    -20.46645
     4.85263     12.80279    -20.19783
     4.87218     12.63381    -19.93333
     4.89173     12.47689    -19.67343
     4.91128     12.33126    -19.41937
     4.93083     12.19613    -19.17132
     4.95038     12.07069    -18.92958
     4.96992     11.95424    -18.69462
     4.98947     11.84610    -18.46670
     5.00902     11.74563    -18.24592
     5.02857     11.65225    -18.03268
     5.04812     11.56532    -17.82767
     5.06767     11.48411    -17.63038
     5.08722     11.40800    -17.44190
     5.10677     11.33614    -17.26219
     5.12632     11.26764    -17.09178
     5.14586     11.20142    -16.93056
     5.16541     11.13638    -16.77861
     5.18496     11.07134    -16.63610
     5.20451     11.00499    -16.50251
     5.22406     10.93599    -16.37730
     5.24361     10.86328    -16.26018
     5.26316     10.78556    -16.14946
     5.28271     10.70198    -16.04433
     5.30226     10.61173    -15.94316
     5.32180     10.51438    -15.84455
     5.34135     10.40980    -15.74688
     5.36090     10.29810    -15.64831
     5.38045     10.17980    -15.54742
     5.40000     10.05563    -15.44288
     5.41955      9.92651    -15.33321
     5.43910      9.79367    -15.21756
     5.45865      9.65839    -15.09534
     5.47820      9.52201    -14.96589
     5.49774      9.38580    -14.82884
     5.51729      9.25116    -14.68429
     5.53684      9.11933    -14.53260
     5.55639      8.99141    -14.37392
     5.57594      8.86847    -14.20888
     5.59549      8.75131    -14.03816
     5.61504      8.64073    -13.86216
     5.63459      8.53733    -13.68203
     5.65414      8.44158    -13.49834
     5.67368      8.35391    -13.31192
     5.69323      8.27454    -13.12356
     5.71278      8.20368    -12.93410
     5.73233      8.14137    -12.74426
     5.75188      8.08765    -12.55488
     5.77143      8.04242    -12.36638
     5.79098      8.00564    -12.17995
     5.81053      7.97703    -11.99577
     5.83008      7.95638    -11.81472
     5.84962      7.94340    -11.63732
     5.86917      7.93774    -11.46414
     5.88872      7.93908    -11.29547
     5.90827      7.94692    -11.13191
     5.92782      7.96092    -10.97393
     5.94737      7.98058    -10.82174
     5.96692      8.00546    -10.67559
     5.98647      8.03508    -10.53569
     6.00601      8.06904    -10.40244
     6.02556      8.10680    -10.27571
     6.04511      8.14799    -10.15566
     6.06466      8.19222    -10.04238
    6.084210     8.239113    -9.936025
    6.103759     8.288317    -9.836424
    6.123308     8.339490    -9.743776
    6.142857     8.392404    -9.658061
    6.162406     8.446793    -9.579479
    6.181955     8.502171    -9.507707
    6.201504     8.558449    -9.443496
    6.221053     8.615156    -9.386302
    6.240601     8.671947    -9.336648
    6.260150     8.728434    -9.294761
    6.279699     8.784105    -9.260388
    6.299248     8.838443    -9.233835
    6.318797     8.890882    -9.215263
    6.338346     8.940712    -9.204399
    6.357895     8.987406    -9.201300
    6.377443     9.030169    -9.205749
    6.396993     9.068292    -9.217508
    6.416541     9.101187    -9.236156
    6.436090     9.128098    -9.261176
    6.455639     9.148456    -9.292221
    6.475188     9.161740    -9.328637
    6.494737     9.167396    -9.369555
    6.514286     9.165055    -9.414235
    6.533834     9.154460    -9.461790
    6.553383     9.135435    -9.511532
    6.572932     9.107890    -9.562395
    6.592481     9.071942    -9.613647
    6.612030     9.027776    -9.664469
    6.631579     8.975625    -9.714147
    6.651128     8.915849    -9.761752
    6.670677     8.848795    -9.807083
    6.690226     8.774889    -9.849200
    6.709774     8.694593    -9.888080
    6.729323     8.608318    -9.922996
    6.748872     8.516454    -9.953687
    6.768421     8.419468    -9.979817
     6.78797      8.31773    -10.00122
     6.80752      8.21167    -10.01739
     6.82707      8.10166    -10.02819
     6.84662      7.98821    -10.03342
     6.86617      7.87176    -10.03278
     6.88571      7.75278    -10.02604
     6.90526      7.63180    -10.01302
    6.924812     7.509357    -9.993619
    6.944361     7.386049    -9.967689
    6.963910     7.262477    -9.935293
    6.983459     7.139135    -9.896461
    7.003008     7.016681    -9.851178
    7.022557     6.895610    -9.799914
    7.042106     6.776529    -9.742638
    7.061654     6.659822    -9.679677
    7.081203     6.546034    -9.611421
    7.100752     6.435511    -9.538213
    7.120301     6.328566    -9.460431
    7.139850     6.225601    -9.378538
    7.159399     6.126774    -9.292923
    7.178947     6.032283    -9.204026
    7.198497     5.942305    -9.112421
    7.218046     5.856846    -9.018410
    7.237594     5.775963    -8.922559
    7.257143     5.699664    -8.825234
    7.276692     5.627797    -8.726729
    7.296241     5.560354    -8.627716
    7.315789     5.497095    -8.528191
    7.335339     5.437910    -8.428721
    7.354887     5.382539    -8.329481
    7.374436     5.330791    -8.230660
    7.393985     5.282420    -8.132636
    7.413534     5.237173    -8.035200
    7.433083     5.194822    -7.938638
    7.452632     5.155129    -7.843058
    7.472181     5.117912    -7.748381
    7.491729     5.082947    -7.654611
    7.511279     5.050073    -7.561737
    7.530828     5.019184    -7.469640
    7.550376     4.990172    -7.378219
    7.569925     4.962995    -7.287495
    7.589474     4.937622    -7.197320
    7.609023     4.914064    -7.107736
    7.628572     4.892313    -7.018404
    7.648120     4.872484    -6.929631
    7.667669     4.854629    -6.841273
    7.687218     4.838814    -6.753324
    7.706768     4.825074    -6.665899
    7.726316     4.813528    -6.579134
    7.745865     4.804200    -6.493107
    7.765414     4.797092    -6.407832
    7.784963     4.792241    -6.323568
    7.804512     4.789569    -6.240357
    7.824060     4.789110    -6.158645
    7.843609     4.790684    -6.078178
    7.863158     4.794242    -5.999447
    7.882707     4.799617    -5.922316
    7.902256     4.806663    -5.846994
    7.921804     4.815224    -5.773540
    7.941354     4.825109    -5.701971
    7.960903     4.836119    -5.632204
    7.980451     4.848137    -5.564388
    8.000000     4.860977    -5.498297
# 
# 07/24/2018 at 15:52 YAMBO_RT @ NewLaptop [start]
# 07/24/2018 at 15:52                      [end]
#
# .-Input file : yambo.in
# | optics                         # [R OPT] Optics
# | bse                            # [R BSE] Bethe Salpeter Equation.
# | BoseTemp= 0.000000     eV      # Bosonic Temperature
# | FFTGvecs= 1721         RL      # [FFT] Plane-waves
# | BSEmod= "retarded"             # [BSE] resonant/retarded/coupling
# | BSKmod= "IP"                   # [BSE] IP/Hartree/HF/ALDA/SEX/BSfxc
# | Gauge= "velocity"              # [BSE] Gauge (length|velocity)
# | #EvalKerr                      # [BSE] Compute the Kerr effect
# | #AnHall                        # [BSE] Add the anomalous Hall effect to eps if using length gauge
# | % BEnRange
# |  0.200000 | 8.000000 | eV      # [BSS] Energy range
# | %
# | % BDmRange
# |  0.300000 | 0.500000 | eV      # [BSS] Damping range
# | %
# | BEnSteps=  400                 # [BSS] Energy steps
# | % BLongDir
# |  1.000000 | 0.000000 | 0.000000 |        # [BSS] [cc] Electric Field
# | %
# | % BSEBands
# |   1 | 13 |                     # [BSK] Bands range
# | %
