#                                                           
#  ____  ____     _       ____    ____  ______      ___     
# |_  _||_  _|   / \     |_   \  /   _||_   _ \   ."   `.   
#   \ \  / /    / _ \      |   \/   |    | |_) | /  .-.  \  
#    \ \/ /    / ___ \     | |\  /| |    |  __". | |   | |  
#    _|  |_  _/ /   \ \_  _| |_\/_| |_  _| |__) |\  `-"  /  
#   |______||____| |____||_____||_____||_______/  `.___."   
#                                                           
#                                                           
#                                                           
#        Version 4.3.0 Revision 15642 Hash 4a43e30          
#                      MPI+SLK Build                        
#                http://www.yambo-code.org                  
#
# Absorption @ Q(1) [q->0 direction] :0.1000E-4  0.000     0.000   
#
#
#
# - The Green`s function is Retarded -
# - Using the Length Gauge -
# - [r,Vnl] is *NOT* included -
#
#
#    Diamagnetic term
#    A [nel]
#    -4.485099
#
#    E/ev[1]      EPS-Im[2]    EPS-Re[3]
#
   0.2000        1995.        1263.   
   0.2195        1998.        1037.   
   0.2391        1974.        826.4   
   0.2586        1927.        634.6   
   0.2782        1862.        463.3   
   0.2977        1785.        313.0   
   0.3173        1698.        183.2   
   0.3368        1607.        72.90   
   0.3564        1514.       -19.50   
   0.3759        1422.       -95.81   
   0.3955        1331.       -157.9   
   0.4150        1244.       -207.7   
   0.4346        1162.       -247.0   
   0.4541        1084.       -277.4   
   0.4737        1011.       -300.2   
   0.4932        943.4       -316.9   
   0.5128        880.7       -328.5   
   0.5323        822.9       -336.0   
   0.5519        769.8       -340.1   
   0.5714        720.9       -341.7   
   0.5910        676.1       -341.2   
   0.6105        634.9       -339.2   
      0.6301     597.1142    -336.0499
      0.6496     562.3737    -332.0593
      0.6692     530.3628    -327.4966
      0.6887     500.7846    -322.5552
      0.7083     473.3607    -317.3738
      0.7278     447.8374    -312.0440
      0.7474     423.9937    -306.6205
      0.7669     401.6378    -301.1273
      0.7865     380.6111    -295.5677
      0.8060     360.7877    -289.9359
      0.8256     342.0686    -284.2190
      0.8451     324.3795    -278.4061
      0.8647     307.6633    -272.4953
      0.8842     291.8753    -266.4894
      0.9038     276.9787    -260.3985
      0.9233     262.9402    -254.2421
      0.9429     249.7274    -248.0413
      0.9624     237.3075    -241.8216
      0.9820     225.6446    -235.6085
      1.0015     214.7039    -229.4280
      1.0211     204.4464    -223.3032
      1.0406     194.8359    -217.2545
      1.0602     185.8338    -211.3014
      1.0797     177.4035    -205.4580
      1.0992     169.5092    -199.7371
      1.1188     162.1161    -194.1501
      1.1383     155.1909    -188.7054
      1.1579     148.7022    -183.4083
      1.1774     142.6191    -178.2643
      1.1970     136.9134    -173.2763
      1.2165     131.5580    -168.4456
      1.2361     126.5270    -163.7723
      1.2556     121.7972    -159.2555
      1.2752     117.3463    -154.8932
      1.2947     113.1537    -150.6840
      1.3143     109.2014    -146.6242
      1.3338     105.4716    -142.7115
      1.3534     101.9477    -138.9438
      1.3729      98.6147    -135.3179
      1.3925      95.4567    -131.8312
      1.4120      92.4588    -128.4813
      1.4316      89.6057    -125.2646
      1.4511      86.8824    -122.1765
      1.4707      84.2743    -119.2103
      1.4902      81.7679    -116.3592
      1.5098      79.3508    -113.6146
      1.5293      77.0125    -110.9654
      1.5489      74.7449    -108.4016
      1.5684      72.5424    -105.9110
      1.5880      70.4018    -103.4835
      1.6075      68.3222    -101.1090
     1.62707     66.30422    -98.77889
     1.64662     64.35007    -96.48639
     1.66617     62.46317    -94.22706
     1.68571     60.64648    -91.99839
     1.70526     58.90324    -89.79827
     1.72481     57.23613    -87.62739
     1.74436     55.64696    -85.48695
     1.76391     54.13717    -83.37891
     1.78346     52.70728    -81.30610
     1.80301     51.35665    -79.27135
     1.82256     50.08403    -77.27806
     1.84211     48.88765    -75.32944
     1.86165     47.76480    -73.42885
     1.88120     46.71230    -71.57930
     1.90075     45.72608    -69.78407
     1.92030     44.80165    -68.04570
     1.93985     43.93364    -66.36615
     1.95940     43.11635    -64.74742
     1.97895     42.34344    -63.19044
     1.99850     41.60815    -61.69501
     2.01805     40.90350    -60.26052
     2.03759     40.22237    -58.88438
     2.05714     39.55829    -57.56374
     2.07669     38.90493    -56.29351
     2.09624     38.25714    -55.06840
     2.11579     37.61110    -53.88173
     2.13534     36.96410    -52.72645
     2.15489     36.31508    -51.59608
     2.17444     35.66455    -50.48304
     2.19398     35.01403    -49.38165
     2.21353     34.36651    -48.28632
     2.23308     33.72527    -47.19274
     2.25263     33.09441    -46.09801
     2.27218     32.47784    -44.99996
     2.29173     31.87972    -43.89751
     2.31128     31.30349    -42.79058
     2.33083     30.75249    -41.67948
     2.35038     30.22953    -40.56514
     2.36992     29.73684    -39.44841
     2.38947     29.27634    -38.33129
     2.40902     28.84973    -37.21450
     2.42857     28.45807    -36.10015
     2.44812     28.10245    -34.98914
     2.46767     27.78359    -33.88326
     2.48722     27.50211    -32.78378
     2.50677     27.25884    -31.69201
     2.52632     27.05409    -30.60913
     2.54586     26.88850    -29.53682
     2.56541     26.76245    -28.47627
     2.58496     26.67650    -27.42888
     2.60451     26.63118    -26.39590
     2.62406     26.62707    -25.37930
     2.64361     26.66457    -24.38073
     2.66316     26.74452    -23.40193
     2.68271     26.86693    -22.44522
     2.70226     27.03254    -21.51284
     2.72180     27.24151    -20.60767
     2.74135     27.49380    -19.73241
     2.76090     27.78926    -18.89064
     2.78045     28.12741    -18.08567
     2.80000     28.50707    -17.32130
     2.81955     28.92683    -16.60146
     2.83910     29.38441    -15.93050
     2.85865     29.87693    -15.31248
     2.87820     30.40061    -14.75111
     2.89774     30.95107    -14.25027
     2.91729     31.52286    -13.81297
     2.93684     32.11008    -13.44153
     2.95639     32.70626    -13.13728
     2.97594     33.30444    -12.90058
     2.99549     33.89769    -12.73037
     3.01504     34.47953    -12.62456
     3.03459     35.04382    -12.57985
     3.05414     35.58541    -12.59195
     3.07368     36.10020    -12.65596
     3.09323     36.58528    -12.76687
     3.11278     37.03891    -12.91940
     3.13233     37.46048    -13.10893
     3.15188     37.84995    -13.33120
     3.17143     38.20788    -13.58279
     3.19098     38.53482    -13.86094
     3.21053     38.83192    -14.16388
     3.23008     39.09921    -14.48985
     3.24962     39.33707    -14.83770
     3.26917     39.54515    -15.20631
     3.28872     39.72296    -15.59480
     3.30827     39.86954    -16.00165
     3.32782     39.98393    -16.42551
     3.34737     40.06496    -16.86438
     3.36692     40.11168    -17.31598
     3.38647     40.12343    -17.77790
     3.40602     40.09955    -18.24727
     3.42556     40.04014    -18.72133
     3.44511     39.94565    -19.19682
     3.46466     39.81702    -19.67106
     3.48421     39.65563    -20.14147
     3.50376     39.46313    -20.60606
     3.52331     39.24140    -21.06330
     3.54286     38.99223    -21.51202
     3.56241     38.71709    -21.95201
     3.58195     38.41708    -22.38284
     3.60150     38.09282    -22.80440
     3.62105     37.74414    -23.21642
     3.64060     37.37062    -23.61852
     3.66015     36.97145    -24.00941
     3.67970     36.54618    -24.38725
     3.69925     36.09407    -24.74974
     3.71880     35.61501    -25.09353
     3.73835     35.10981    -25.41511
     3.75789     34.58005    -25.71096
     3.77744     34.02811    -25.97744
     3.79699     33.45735    -26.21110
     3.81654     32.87191    -26.40925
     3.83609     32.27665    -26.57007
     3.85564     31.67674    -26.69265
     3.87519     31.07754    -26.77687
     3.89474     30.48418    -26.82397
     3.91429     29.90183    -26.83611
     3.93383     29.33482    -26.81611
     3.95338     28.78675    -26.76773
     3.97293     28.26061    -26.69503
     3.99248     27.75829    -26.60281
     4.01203     27.28085    -26.49555
     4.03158     26.82850    -26.37768
     4.05113     26.40069    -26.25385
     4.07068     25.99594    -26.12794
     4.09023     25.61225    -26.00325
     4.10977     25.24734    -25.88301
     4.12932     24.89821    -25.76934
     4.14887     24.56188    -25.66387
     4.16842     24.23531    -25.56763
     4.18797     23.91546    -25.48089
     4.20752     23.59947    -25.40343
     4.22707     23.28479    -25.33483
     4.24662     22.96908    -25.27408
     4.26617     22.65032    -25.21964
     4.28571     22.32698    -25.17023
     4.30526     21.99754    -25.12409
     4.32481     21.66099    -25.07950
     4.34436     21.31650    -25.03443
     4.36391     20.96365    -24.98699
     4.38346     20.60231    -24.93490
     4.40301     20.23253    -24.87634
     4.42256     19.85488    -24.80894
     4.44211     19.47051    -24.73102
     4.46165     19.08045    -24.64053
     4.48120     18.68654    -24.53602
     4.50075     18.29048    -24.41640
     4.52030     17.89447    -24.28043
     4.53985     17.50077    -24.12794
     4.55940     17.11157    -23.95873
     4.57895     16.72915    -23.77319
     4.59850     16.35564    -23.57209
     4.61804     15.99287    -23.35631
     4.63759     15.64244    -23.12730
     4.65714     15.30580    -22.88658
     4.67669     14.98401    -22.63578
     4.69624     14.67790    -22.37653
     4.71579     14.38788    -22.11072
     4.73534     14.11423    -21.84002
     4.75489     13.85699    -21.56610
     4.77444     13.61592    -21.29058
     4.79398     13.39056    -21.01491
     4.81353     13.18039    -20.74038
     4.83308     12.98473    -20.46825
     4.85263     12.80281    -20.19937
     4.87218     12.63383    -19.93477
     4.89173     12.47694    -19.67511
     4.91128     12.33133    -19.42098
     4.93083     12.19619    -19.17287
     4.95038     12.07078    -18.93107
     4.96992     11.95431    -18.69605
     4.98947     11.84617    -18.46803
     5.00902     11.74570    -18.24736
     5.02857     11.65230    -18.03419
     5.04812     11.56537    -17.82888
     5.06767     11.48419    -17.63189
     5.08722     11.40807    -17.44333
     5.10677     11.33620    -17.26363
     5.12632     11.26769    -17.09307
     5.14586     11.20146    -16.93176
     5.16541     11.13648    -16.77988
     5.18496     11.07143    -16.63735
     5.20451     11.00504    -16.50369
     5.22406     10.93617    -16.37860
     5.24361     10.86343    -16.26124
     5.26316     10.78572    -16.15056
     5.28271     10.70213    -16.04544
     5.30226     10.61190    -15.94432
     5.32180     10.51456    -15.84575
     5.34135     10.41000    -15.74799
     5.36090     10.29834    -15.64950
     5.38045     10.18003    -15.54860
     5.40000     10.05584    -15.44398
     5.41955      9.92675    -15.33439
     5.43910      9.79393    -15.21884
     5.45865      9.65865    -15.09657
     5.47820      9.52224    -14.96694
     5.49774      9.38607    -14.82992
     5.51729      9.25144    -14.68549
     5.53684      9.11959    -14.53372
     5.55639      8.99170    -14.37499
     5.57594      8.86870    -14.20998
     5.59549      8.75156    -14.03925
     5.61504      8.64099    -13.86336
     5.63459      8.53757    -13.68315
     5.65414      8.44183    -13.49948
     5.67368      8.35414    -13.31301
     5.69323      8.27476    -13.12468
     5.71278      8.20389    -12.93520
     5.73233      8.14157    -12.74540
     5.75188      8.08786    -12.55593
     5.77143      8.04265    -12.36755
     5.79098      8.00585    -12.18103
     5.81053      7.97721    -11.99690
     5.83008      7.95655    -11.81585
     5.84962      7.94357    -11.63828
     5.86917      7.93794    -11.46508
     5.88872      7.93926    -11.29646
     5.90827      7.94713    -11.13292
     5.92782      7.96112    -10.97488
     5.94737      7.98078    -10.82264
     5.96692      8.00564    -10.67650
     5.98647      8.03527    -10.53665
     6.00601      8.06918    -10.40326
     6.02556      8.10696    -10.27654
     6.04511      8.14819    -10.15654
     6.06466      8.19242    -10.04328
    6.084210     8.239331    -9.936868
    6.103759     8.288533    -9.837315
    6.123308     8.339760    -9.744619
    6.142857     8.392656    -9.658929
    6.162406     8.447008    -9.580215
    6.181955     8.502412    -9.508610
    6.201504     8.558694    -9.444214
    6.221053     8.615407    -9.387114
    6.240601     8.672229    -9.337496
    6.260150     8.728725    -9.295470
    6.279699     8.784382    -9.261187
    6.299248     8.838722    -9.234687
    6.318797     8.891095    -9.216015
    6.338346     8.940944    -9.205150
    6.357895     8.987606    -9.202045
    6.377443     9.030338    -9.206491
    6.396993     9.068500    -9.218235
    6.416541     9.101384    -9.236903
    6.436090     9.128360    -9.262054
    6.455639     9.148711    -9.293094
    6.475188     9.162000    -9.329425
    6.494737     9.167621    -9.370336
    6.514286     9.165300    -9.414994
    6.533834     9.154691    -9.462633
    6.553383     9.135676    -9.512337
    6.572932     9.108152    -9.563249
    6.592481     9.072206    -9.614482
    6.612030     9.028017    -9.665341
    6.631579     8.975862    -9.714931
    6.651128     8.916074    -9.762632
    6.670677     8.849004    -9.807920
    6.690226     8.775122    -9.850137
    6.709774     8.694815    -9.888951
    6.729323     8.608516    -9.923864
    6.748872     8.516664    -9.954601
    6.768421     8.419667    -9.980777
     6.78797      8.31791    -10.00212
     6.80752      8.21187    -10.01831
     6.82707      8.10185    -10.02912
     6.84662      7.98836    -10.03434
     6.86617      7.87189    -10.03368
     6.88571      7.75291    -10.02692
     6.90526      7.63193    -10.01389
    6.924812     7.509477    -9.994438
    6.944361     7.386154    -9.968520
    6.963910     7.262577    -9.936124
    6.983459     7.139237    -9.897323
    7.003008     7.016754    -9.852109
    7.022557     6.895704    -9.800756
    7.042106     6.776578    -9.743448
    7.061654     6.659906    -9.680529
    7.081203     6.546081    -9.612209
    7.100752     6.435559    -9.538957
    7.120301     6.328644    -9.461185
    7.139850     6.225654    -9.379245
    7.159399     6.126825    -9.293591
    7.178947     6.032350    -9.204731
    7.198497     5.942346    -9.113097
    7.218046     5.856899    -9.019130
    7.237594     5.776040    -8.923196
    7.257143     5.699722    -8.825878
    7.276692     5.627889    -8.727485
    7.296241     5.560420    -8.628366
    7.315789     5.497185    -8.528914
    7.335339     5.437977    -8.429423
    7.354887     5.382617    -8.330180
    7.374436     5.330864    -8.231337
    7.393985     5.282488    -8.133222
    7.413534     5.237250    -8.035823
    7.433083     5.194896    -7.939240
    7.452632     5.155228    -7.843657
    7.472181     5.118003    -7.748998
    7.491729     5.083044    -7.655210
    7.511279     5.050169    -7.562335
    7.530828     5.019294    -7.470239
    7.550376     4.990284    -7.378867
    7.569925     4.963106    -7.288126
    7.589474     4.937739    -7.197936
    7.609023     4.914166    -7.108265
    7.628572     4.892433    -7.019045
    7.648120     4.872605    -6.930201
    7.667669     4.854739    -6.841841
    7.687218     4.838909    -6.753883
    7.706768     4.825190    -6.666466
    7.726316     4.813623    -6.579682
    7.745865     4.804293    -6.493583
    7.765414     4.797203    -6.408380
    7.784963     4.792342    -6.324099
    7.804512     4.789697    -6.240982
    7.824060     4.789220    -6.159176
    7.843609     4.790801    -6.078773
    7.863158     4.794357    -5.999978
    7.882707     4.799734    -5.922879
    7.902256     4.806792    -5.847553
    7.921804     4.815334    -5.774096
    7.941354     4.825218    -5.702498
    7.960903     4.836257    -5.632772
    7.980451     4.848263    -5.564937
    8.000000     4.861101    -5.498920
# 
# 07/31/2018 at 12:10 YAMBO_RT @ narro [start]
# 07/31/2018 at 12:10                  [end]
#
# .-Input file : yambo.in
# | optics                         # [R OPT] Optics
# | bse                            # [R BSE] Bethe Salpeter Equation.
# | BoseTemp= 0.000000     eV      # Bosonic Temperature
# | FFTGvecs= 1721         RL      # [FFT] Plane-waves
# | BSEmod= "retarded"             # [BSE] resonant/retarded/coupling
# | BSKmod= "IP"                   # [BSE] IP/Hartree/HF/ALDA/SEX/BSfxc
# | #EvalKerr                      # [BSE] Compute the Kerr effect
# | #AnHall                        # [BSE] Add the anomalous Hall effect to eps if using length gauge
# | % BEnRange
# |  0.200000 | 8.000000 | eV      # [BSS] Energy range
# | %
# | % BDmRange
# |  0.300000 | 0.500000 | eV      # [BSS] Damping range
# | %
# | BEnSteps=  400                 # [BSS] Energy steps
# | % BLongDir
# | 0.1000E-4 | 0.000    | 0.000    |        # [BSS] [cc] Electric Field
# | %
# | % BSEBands
# |   1 | 13 |                     # [BSK] Bands range
# | %
