#                                                           
#  ____  ____     _       ____    ____  ______      ___     
# |_  _||_  _|   / \     |_   \  /   _||_   _ \   ."   `.   
#   \ \  / /    / _ \      |   \/   |    | |_) | /  .-.  \  
#    \ \/ /    / ___ \     | |\  /| |    |  __". | |   | |  
#    _|  |_  _/ /   \ \_  _| |_\/_| |_  _| |__) |\  `-"  /  
#   |______||____| |____||_____||_____||_______/  `.___."   
#                                                           
#                                                           
#                                                           
#        Version 4.3.0 Revision 15642 Hash 4a43e30          
#                      MPI+SLK Build                        
#                http://www.yambo-code.org                  
#
# Absorption @ Q(1) [q->0 direction] : 1.000000  0.000000  0.000000
#
#
#
# - The Green`s function is Retarded -
# - Using the Velocity Gauge -
# - [r,Vnl] is *NOT* included -
#
#
#    Diamagnetic term
#    A [nel]
#    -4.485099
#
#    E/ev[1]      EPS-Im[2]    EPS-Re[3]
#
   0.2000        1995.        1263.   
   0.2195        1998.        1037.   
   0.2391        1974.        826.4   
   0.2586        1927.        634.6   
   0.2782        1862.        463.3   
   0.2977        1785.        313.0   
   0.3173        1698.        183.2   
   0.3368        1607.        72.90   
   0.3564        1514.       -19.49   
   0.3759        1422.       -95.81   
   0.3955        1331.       -157.9   
   0.4150        1244.       -207.7   
   0.4346        1162.       -247.0   
   0.4541        1084.       -277.4   
   0.4737        1011.       -300.2   
   0.4932        943.4       -316.9   
   0.5128        880.7       -328.5   
   0.5323        822.9       -336.0   
   0.5519        769.8       -340.1   
   0.5714        720.9       -341.7   
   0.5910        676.1       -341.2   
   0.6105        634.9       -339.2   
      0.6301     597.1136    -336.0487
      0.6496     562.3746    -332.0595
      0.6692     530.3608    -327.4946
      0.6887     500.7822    -322.5531
      0.7083     473.3566    -317.3699
      0.7278     447.8362    -312.0421
      0.7474     423.9954    -306.6216
      0.7669     401.6411    -301.1299
      0.7865     380.6121    -295.5687
      0.8060     360.7857    -289.9336
      0.8256     342.0682    -284.2181
      0.8451     324.3802    -278.4075
      0.8647     307.6629    -272.4953
      0.8842     291.8747    -266.4888
      0.9038     276.9770    -260.3968
      0.9233     262.9388    -254.2399
      0.9429     249.7297    -248.0438
      0.9624     237.3057    -241.8192
      0.9820     225.6462    -235.6107
      1.0015     214.7044    -229.4295
      1.0211     204.4466    -223.3035
      1.0406     194.8345    -217.2531
      1.0602     185.8333    -211.3004
      1.0797     177.4015    -205.4546
      1.0992     169.5070    -199.7338
      1.1188     162.1164    -194.1512
      1.1383     155.1905    -188.7051
      1.1579     148.7018    -183.4083
      1.1774     142.6190    -178.2644
      1.1970     136.9128    -173.2755
      1.2165     131.5582    -168.4460
      1.2361     126.5271    -163.7724
      1.2556     121.7974    -159.2562
      1.2752     117.3462    -154.8940
      1.2947     113.1549    -150.6863
      1.3143     109.2017    -146.6254
      1.3338     105.4728    -142.7146
      1.3534     101.9485    -138.9453
      1.3729      98.6144    -135.3175
      1.3925      95.4568    -131.8316
      1.4120      92.4594    -128.4825
      1.4316      89.6064    -125.2658
      1.4511      86.8829    -122.1770
      1.4707      84.2747    -119.2109
      1.4902      81.7683    -116.3602
      1.5098      79.3510    -113.6152
      1.5293      77.0124    -110.9655
      1.5489      74.7449    -108.4012
      1.5684      72.5421    -105.9101
      1.5880      70.4014    -103.4822
      1.6075      68.3219    -101.1080
     1.62707     66.30404    -98.77831
     1.64662     64.35042    -96.48679
     1.66617     62.46367    -94.22805
     1.68571     60.64661    -91.99825
     1.70526     58.90338    -89.79832
     1.72481     57.23618    -87.62719
     1.74436     55.64721    -85.48710
     1.76391     54.13735    -83.37869
     1.78346     52.70729    -81.30561
     1.80301     51.35654    -79.27081
     1.82256     50.08386    -77.27705
     1.84211     48.88804    -75.33003
     1.86165     47.76537    -73.42989
     1.88120     46.71247    -71.57932
     1.90075     45.72610    -69.78394
     1.92030     44.80201    -68.04702
     1.93985     43.93364    -66.36625
     1.95940     43.11589    -64.74609
     1.97895     42.34344    -63.19026
     1.99850     41.60783    -61.69426
     2.01805     40.90332    -60.26007
     2.03759     40.22215    -58.88387
     2.05714     39.55853    -57.56428
     2.07669     38.90517    -56.29411
     2.09624     38.25718    -55.06809
     2.11579     37.61148    -53.88260
     2.13534     36.96435    -52.72721
     2.15489     36.31515    -51.59609
     2.17444     35.66465    -50.48329
     2.19398     35.01414    -49.38179
     2.21353     34.36647    -48.28606
     2.23308     33.72509    -47.19218
     2.25263     33.09436    -46.09767
     2.27218     32.47771    -44.99920
     2.29173     31.87973    -43.89765
     2.31128     31.30366    -42.79112
     2.33083     30.75262    -41.67985
     2.35038     30.22949    -40.56516
     2.36992     29.73655    -39.44770
     2.38947     29.27620    -38.33067
     2.40902     28.84971    -37.21426
     2.42857     28.45797    -36.09944
     2.44812     28.10235    -34.98876
     2.46767     27.78346    -33.88265
     2.48722     27.50219    -32.78357
     2.50677     27.25901    -31.69247
     2.52632     27.05437    -30.61015
     2.54586     26.88856    -29.53713
     2.56541     26.76247    -28.47632
     2.58496     26.67658    -27.42911
     2.60451     26.63110    -26.39594
     2.62406     26.62704    -25.37929
     2.64361     26.66477    -24.38103
     2.66316     26.74471    -23.40267
     2.68271     26.86705    -22.44542
     2.70226     27.03264    -21.51297
     2.72180     27.24138    -20.60741
     2.74135     27.49368    -19.73229
     2.76090     27.78916    -18.89034
     2.78045     28.12740    -18.08534
     2.80000     28.50720    -17.32152
     2.81955     28.92699    -16.60190
     2.83910     29.38441    -15.93057
     2.85865     29.87702    -15.31268
     2.87820     30.40075    -14.75133
     2.89774     30.95117    -14.25039
     2.91729     31.52272    -13.81228
     2.93684     32.11017    -13.44142
     2.95639     32.70635    -13.13741
     2.97594     33.30462    -12.90092
     2.99549     33.89770    -12.72996
     3.01504     34.47965    -12.62436
     3.03459     35.04384    -12.58021
     3.05414     35.58544    -12.59209
     3.07368     36.10003    -12.65576
     3.09323     36.58525    -12.76671
     3.11278     37.03905    -12.91964
     3.13233     37.46049    -13.10868
     3.15188     37.84995    -13.33133
     3.17143     38.20782    -13.58266
     3.19098     38.53475    -13.86086
     3.21053     38.83177    -14.16390
     3.23008     39.09912    -14.48957
     3.24962     39.33687    -14.83725
     3.26917     39.54501    -15.20589
     3.28872     39.72298    -15.59511
     3.30827     39.86951    -16.00169
     3.32782     39.98386    -16.42506
     3.34737     40.06495    -16.86398
     3.36692     40.11161    -17.31582
     3.38647     40.12319    -17.77761
     3.40602     40.09939    -18.24705
     3.42556     40.04005    -18.72098
     3.44511     39.94558    -19.19655
     3.46466     39.81699    -19.67085
     3.48421     39.65554    -20.14154
     3.50376     39.46308    -20.60593
     3.52331     39.24133    -21.06328
     3.54286     38.99229    -21.51201
     3.56241     38.71723    -21.95189
     3.58195     38.41718    -22.38274
     3.60150     38.09278    -22.80434
     3.62105     37.74396    -23.21616
     3.64060     37.37051    -23.61857
     3.66015     36.97146    -24.00926
     3.67970     36.54613    -24.38699
     3.69925     36.09392    -24.74917
     3.71880     35.61487    -25.09305
     3.73835     35.10972    -25.41501
     3.75789     34.58010    -25.71110
     3.77744     34.02802    -25.97695
     3.79699     33.45726    -26.21066
     3.81654     32.87201    -26.40944
     3.83609     32.27662    -26.56998
     3.85564     31.67672    -26.69242
     3.87519     31.07759    -26.77673
     3.89474     30.48425    -26.82375
     3.91429     29.90191    -26.83581
     3.93383     29.33484    -26.81594
     3.95338     28.78680    -26.76775
     3.97293     28.26057    -26.69510
     3.99248     27.75831    -26.60296
     4.01203     27.28085    -26.49524
     4.03158     26.82854    -26.37772
     4.05113     26.40066    -26.25386
     4.07068     25.99591    -26.12773
     4.09023     25.61230    -26.00314
     4.10977     25.24735    -25.88288
     4.12932     24.89830    -25.76918
     4.14887     24.56189    -25.66366
     4.16842     24.23529    -25.56756
     4.18797     23.91538    -25.48082
     4.20752     23.59944    -25.40354
     4.22707     23.28480    -25.33472
     4.24662     22.96906    -25.27374
     4.26617     22.65045    -25.21963
     4.28571     22.32701    -25.17002
     4.30526     21.99756    -25.12382
     4.32481     21.66104    -25.07930
     4.34436     21.31656    -25.03442
     4.36391     20.96361    -24.98671
     4.38346     20.60226    -24.93487
     4.40301     20.23251    -24.87618
     4.42256     19.85498    -24.80901
     4.44211     19.47054    -24.73101
     4.46165     19.08056    -24.64050
     4.48120     18.68656    -24.53609
     4.50075     18.29052    -24.41621
     4.52030     17.89458    -24.28059
     4.53985     17.50083    -24.12788
     4.55940     17.11166    -23.95883
     4.57895     16.72921    -23.77320
     4.59850     16.35572    -23.57226
     4.61804     15.99292    -23.35635
     4.63759     15.64250    -23.12737
     4.65714     15.30583    -22.88656
     4.67669     14.98407    -22.63589
     4.69624     14.67791    -22.37649
     4.71579     14.38792    -22.11070
     4.73534     14.11425    -21.83997
     4.75489     13.85703    -21.56611
     4.77444     13.61594    -21.29062
     4.79398     13.39060    -21.01479
     4.81353     13.18039    -20.74030
     4.83308     12.98474    -20.46804
     4.85263     12.80281    -20.19944
     4.87218     12.63386    -19.93492
     4.89173     12.47691    -19.67501
     4.91128     12.33130    -19.42087
     4.93083     12.19617    -19.17283
     4.95038     12.07073    -18.93104
     4.96992     11.95430    -18.69613
     4.98947     11.84616    -18.46815
     5.00902     11.74570    -18.24738
     5.02857     11.65230    -18.03406
     5.04812     11.56537    -17.82888
     5.06767     11.48416    -17.63178
     5.08722     11.40807    -17.44325
     5.10677     11.33620    -17.26349
     5.12632     11.26771    -17.09309
     5.14586     11.20149    -16.93179
     5.16541     11.13647    -16.77992
     5.18496     11.07145    -16.63741
     5.20451     11.00509    -16.50376
     5.22406     10.93610    -16.37859
     5.24361     10.86341    -16.26139
     5.26316     10.78569    -16.15058
     5.28271     10.70214    -16.04547
     5.30226     10.61190    -15.94436
     5.32180     10.51457    -15.84581
     5.34135     10.40997    -15.74791
     5.36090     10.29831    -15.64946
     5.38045     10.18001    -15.54854
     5.40000     10.05584    -15.44401
     5.41955      9.92675    -15.33434
     5.43910      9.79390    -15.21868
     5.45865      9.65863    -15.09649
     5.47820      9.52223    -14.96695
     5.49774      9.38604    -14.82992
     5.51729      9.25142    -14.68542
     5.53684      9.11959    -14.53371
     5.55639      8.99166    -14.37503
     5.57594      8.86871    -14.21003
     5.59549      8.75154    -14.03924
     5.61504      8.64097    -13.86327
     5.63459      8.53756    -13.68311
     5.65414      8.44181    -13.49944
     5.67368      8.35413    -13.31307
     5.69323      8.27476    -13.12467
     5.71278      8.20389    -12.93517
     5.73233      8.14157    -12.74539
     5.75188      8.08786    -12.55602
     5.77143      8.04264    -12.36756
     5.79098      8.00583    -12.18104
     5.81053      7.97721    -11.99674
     5.83008      7.95654    -11.81577
     5.84962      7.94357    -11.63828
     5.86917      7.93790    -11.46509
     5.88872      7.93925    -11.29645
     5.90827      7.94708    -11.13292
     5.92782      7.96108    -10.97495
     5.94737      7.98075    -10.82276
     5.96692      8.00561    -10.67653
     5.98647      8.03525    -10.53665
     6.00601      8.06919    -10.40332
     6.02556      8.10698    -10.27669
     6.04511      8.14817    -10.15658
     6.06466      8.19241    -10.04332
    6.084210     8.239297    -9.936918
    6.103759     8.288513    -9.837341
    6.123308     8.339702    -9.744670
    6.142857     8.392612    -9.658969
    6.162406     8.446989    -9.580309
    6.181955     8.502387    -9.508586
    6.201504     8.558682    -9.444409
    6.221053     8.615388    -9.387152
    6.240601     8.672175    -9.337536
    6.260150     8.728673    -9.295627
    6.279699     8.784362    -9.261259
    6.299248     8.838702    -9.234736
    6.318797     8.891142    -9.216139
    6.338346     8.940967    -9.205296
    6.357895     8.987651    -9.202132
    6.377443     9.030416    -9.206619
    6.396993     9.068542    -9.218410
    6.416541     9.101424    -9.236994
    6.436090     9.128359    -9.262031
    6.455639     9.148703    -9.293066
    6.475188     9.161996    -9.329496
    6.494737     9.167649    -9.370452
    6.514286     9.165303    -9.415075
    6.533834     9.154700    -9.462668
    6.553383     9.135676    -9.512407
    6.572932     9.108135    -9.563282
    6.592481     9.072199    -9.614540
    6.612030     9.028013    -9.665352
    6.631579     8.975859    -9.714980
    6.651128     8.916080    -9.762632
    6.670677     8.849031    -9.808021
    6.690226     8.775117    -9.850140
    6.709774     8.694821    -9.888983
    6.729323     8.608532    -9.923906
    6.748872     8.516668    -9.954602
    6.768421     8.419658    -9.980750
     6.78797      8.31791    -10.00211
     6.80752      8.21183    -10.01823
     6.82707      8.10182    -10.02911
     6.84662      7.98838    -10.03436
     6.86617      7.87191    -10.03370
     6.88571      7.75292    -10.02694
     6.90526      7.63192    -10.01388
    6.924812     7.509469    -9.994487
    6.944361     7.386147    -9.968539
    6.963910     7.262573    -9.936160
    6.983459     7.139228    -9.897296
    7.003008     7.016764    -9.852008
    7.022557     6.895697    -9.800819
    7.042106     6.776601    -9.743441
    7.061654     6.659891    -9.680484
    7.081203     6.546094    -9.612188
    7.100752     6.435575    -9.538990
    7.120301     6.328631    -9.461205
    7.139850     6.225660    -9.379256
    7.159399     6.126837    -9.293655
    7.178947     6.032351    -9.204801
    7.198497     5.942373    -9.113186
    7.218046     5.856915    -9.019160
    7.237594     5.776028    -8.923272
    7.257143     5.699729    -8.825946
    7.276692     5.627861    -8.727434
    7.296241     5.560428    -8.628466
    7.315789     5.497169    -8.528923
    7.335339     5.437991    -8.429413
    7.354887     5.382617    -8.330157
    7.374436     5.330869    -8.231356
    7.393985     5.282508    -8.133289
    7.413534     5.237252    -8.035890
    7.433083     5.194898    -7.939306
    7.452632     5.155210    -7.843703
    7.472181     5.117989    -7.749011
    7.491729     5.083022    -7.655253
    7.511279     5.050153    -7.562396
    7.530828     5.019267    -7.470291
    7.550376     4.990263    -7.378874
    7.569925     4.963077    -7.288127
    7.589474     4.937699    -7.197934
    7.609023     4.914151    -7.108376
    7.628572     4.892410    -7.019051
    7.648120     4.872576    -6.930242
    7.667669     4.854707    -6.841846
    7.687218     4.838901    -6.753958
    7.706768     4.825165    -6.666503
    7.726316     4.813620    -6.579738
    7.745865     4.804278    -6.493645
    7.765414     4.797179    -6.408387
    7.784963     4.792326    -6.324134
    7.804512     4.789666    -6.240947
    7.824060     4.789208    -6.159226
    7.843609     4.790778    -6.078773
    7.863158     4.794335    -6.000000
    7.882707     4.799723    -5.922951
    7.902256     4.806763    -5.847590
    7.921804     4.815320    -5.774114
    7.941354     4.825204    -5.702541
    7.960903     4.836226    -5.632770
    7.980451     4.848247    -5.564937
    8.000000     4.861082    -5.498827
# 
# 07/31/2018 at 12:10 YAMBO_RT @ narro [start]
# 07/31/2018 at 12:10                  [end]
#
# .-Input file : yambo.in
# | optics                         # [R OPT] Optics
# | bse                            # [R BSE] Bethe Salpeter Equation.
# | BoseTemp= 0.000000     eV      # Bosonic Temperature
# | FFTGvecs= 1721         RL      # [FFT] Plane-waves
# | BSEmod= "retarded"             # [BSE] resonant/retarded/coupling
# | BSKmod= "IP"                   # [BSE] IP/Hartree/HF/ALDA/SEX/BSfxc
# | Gauge= "velocity"              # [BSE] Gauge (length|velocity)
# | #EvalKerr                      # [BSE] Compute the Kerr effect
# | #AnHall                        # [BSE] Add the anomalous Hall effect to eps if using length gauge
# | % BEnRange
# |  0.200000 | 8.000000 | eV      # [BSS] Energy range
# | %
# | % BDmRange
# |  0.300000 | 0.500000 | eV      # [BSS] Damping range
# | %
# | BEnSteps=  400                 # [BSS] Energy steps
# | % BLongDir
# |  1.000000 | 0.000000 | 0.000000 |        # [BSS] [cc] Electric Field
# | %
# | % BSEBands
# |   1 | 13 |                     # [BSK] Bands range
# | %
