#                                                           
#  ____  ____     _       ____    ____  ______      ___     
# |_  _||_  _|   / \     |_   \  /   _||_   _ \   ."   `.   
#   \ \  / /    / _ \      |   \/   |    | |_) | /  .-.  \  
#    \ \/ /    / ___ \     | |\  /| |    |  __". | |   | |  
#    _|  |_  _/ /   \ \_  _| |_\/_| |_  _| |__) |\  `-"  /  
#   |______||____| |____||_____||_____||_______/  `.___."   
#                                                           
#                                                           
#                                                           
#        Version 4.3.0 Revision 15642 Hash 4a43e30          
#                      MPI+SLK Build                        
#                http://www.yambo-code.org                  
#
# Absorption @ Q(1) [q->0 direction] :0.1000E-4  0.000     0.000   
#
#
#
# - The Green`s function is Retarded -
# - Using the Length Gauge -
# - [r,Vnl] is *NOT* included -
#
#
#    Diamagnetic term
#    A [nel]
#    0.170E+10
#
#    E/ev[1]      EPS-Im[2]    EPS-Re[3]
#
   0.2000       0.4896E+6    0.1537E+9
   0.2195       0.5394E+6    0.1538E+9
   0.2391       0.5896E+6    0.1538E+9
   0.2586       0.6404E+6    0.1538E+9
   0.2782       0.6916E+6    0.1539E+9
   0.2977       0.7435E+6    0.1539E+9
   0.3173       0.7959E+6    0.1540E+9
   0.3368       0.8490E+6    0.1540E+9
   0.3564       0.9028E+6    0.1541E+9
   0.3759       0.9573E+6    0.1541E+9
   0.3955       0.1013E+7    0.1542E+9
   0.4150       0.1069E+7    0.1542E+9
   0.4346       0.1126E+7    0.1543E+9
   0.4541       0.1184E+7    0.1544E+9
   0.4737       0.1243E+7    0.1545E+9
   0.4932       0.1303E+7    0.1545E+9
   0.5128       0.1364E+7    0.1546E+9
   0.5323       0.1426E+7    0.1547E+9
   0.5519       0.1489E+7    0.1548E+9
   0.5714       0.1554E+7    0.1549E+9
   0.5910       0.1620E+7    0.1549E+9
   0.6105       0.1687E+7    0.1550E+9
   0.6301       0.1756E+7    0.1551E+9
   0.6496       0.1827E+7    0.1552E+9
   0.6692       0.1899E+7    0.1553E+9
   0.6887       0.1973E+7    0.1555E+9
   0.7083       0.2049E+7    0.1556E+9
   0.7278       0.2127E+7    0.1557E+9
   0.7474       0.2206E+7    0.1558E+9
   0.7669       0.2288E+7    0.1559E+9
   0.7865       0.2372E+7    0.1560E+9
   0.8060       0.2458E+7    0.1562E+9
   0.8256       0.2546E+7    0.1563E+9
   0.8451       0.2637E+7    0.1564E+9
   0.8647       0.2730E+7    0.1566E+9
   0.8842       0.2825E+7    0.1567E+9
   0.9038       0.2922E+7    0.1569E+9
   0.9233       0.3021E+7    0.1570E+9
   0.9429       0.3122E+7    0.1571E+9
   0.9624       0.3224E+7    0.1573E+9
   0.9820       0.3329E+7    0.1575E+9
    1.002       0.3435E+7    0.1576E+9
    1.021       0.3543E+7    0.1578E+9
    1.041       0.3653E+7    0.1580E+9
    1.060       0.3764E+7    0.1581E+9
    1.080       0.3877E+7    0.1583E+9
    1.099       0.3993E+7    0.1585E+9
    1.119       0.4111E+7    0.1587E+9
    1.138       0.4232E+7    0.1589E+9
    1.158       0.4357E+7    0.1591E+9
    1.177       0.4487E+7    0.1593E+9
    1.197       0.4620E+7    0.1595E+9
    1.217       0.4759E+7    0.1597E+9
    1.236       0.4904E+7    0.1600E+9
    1.256       0.5055E+7    0.1602E+9
    1.275       0.5213E+7    0.1604E+9
    1.295       0.5378E+7    0.1607E+9
    1.314       0.5552E+7    0.1609E+9
    1.334       0.5733E+7    0.1612E+9
    1.353       0.5923E+7    0.1615E+9
    1.373       0.6123E+7    0.1617E+9
    1.392       0.6333E+7    0.1620E+9
    1.412       0.6553E+7    0.1623E+9
    1.432       0.6785E+7    0.1626E+9
    1.451       0.7028E+7    0.1629E+9
    1.471       0.7284E+7    0.1632E+9
    1.490       0.7554E+7    0.1635E+9
    1.510       0.7838E+7    0.1638E+9
    1.529       0.8138E+7    0.1642E+9
    1.549       0.8454E+7    0.1645E+9
    1.568       0.8787E+7    0.1648E+9
    1.588       0.9139E+7    0.1651E+9
    1.608       0.9512E+7    0.1655E+9
    1.627       0.9906E+7    0.1658E+9
    1.647       0.1032E+8    0.1661E+9
    1.666       0.1076E+8    0.1665E+9
    1.686       0.1123E+8    0.1668E+9
    1.705       0.1173E+8    0.1671E+9
    1.725       0.1225E+8    0.1674E+9
    1.744       0.1281E+8    0.1677E+9
    1.764       0.1339E+8    0.1680E+9
    1.783       0.1401E+8    0.1683E+9
    1.803       0.1465E+8    0.1685E+9
    1.823       0.1533E+8    0.1687E+9
    1.842       0.1604E+8    0.1689E+9
    1.862       0.1677E+8    0.1690E+9
    1.881       0.1752E+8    0.1691E+9
    1.901       0.1830E+8    0.1691E+9
    1.920       0.1908E+8    0.1691E+9
    1.940       0.1987E+8    0.1690E+9
    1.959       0.2065E+8    0.1688E+9
    1.979       0.2141E+8    0.1686E+9
    1.998       0.2214E+8    0.1683E+9
    2.018       0.2282E+8    0.1679E+9
    2.038       0.2345E+8    0.1675E+9
    2.057       0.2400E+8    0.1670E+9
    2.077       0.2448E+8    0.1665E+9
    2.096       0.2486E+8    0.1659E+9
    2.116       0.2515E+8    0.1654E+9
    2.135       0.2534E+8    0.1648E+9
    2.155       0.2544E+8    0.1643E+9
    2.174       0.2545E+8    0.1639E+9
    2.194       0.2539E+8    0.1634E+9
    2.214       0.2526E+8    0.1631E+9
    2.233       0.2508E+8    0.1628E+9
    2.253       0.2486E+8    0.1626E+9
    2.272       0.2463E+8    0.1625E+9
    2.292       0.2438E+8    0.1625E+9
    2.311       0.2414E+8    0.1626E+9
    2.331       0.2391E+8    0.1628E+9
    2.350       0.2371E+8    0.1630E+9
    2.370       0.2354E+8    0.1633E+9
    2.389       0.2341E+8    0.1636E+9
    2.409       0.2332E+8    0.1640E+9
    2.429       0.2328E+8    0.1645E+9
    2.448       0.2328E+8    0.1650E+9
    2.468       0.2334E+8    0.1656E+9
    2.487       0.2346E+8    0.1661E+9
    2.507       0.2363E+8    0.1667E+9
    2.526       0.2385E+8    0.1674E+9
    2.546       0.2414E+8    0.1680E+9
    2.565       0.2449E+8    0.1687E+9
    2.585       0.2489E+8    0.1694E+9
    2.605       0.2536E+8    0.1701E+9
    2.624       0.2590E+8    0.1708E+9
    2.644       0.2649E+8    0.1715E+9
    2.663       0.2716E+8    0.1722E+9
    2.683       0.2789E+8    0.1729E+9
    2.702       0.2869E+8    0.1736E+9
    2.722       0.2956E+8    0.1742E+9
    2.741       0.3050E+8    0.1749E+9
    2.761       0.3151E+8    0.1755E+9
    2.780       0.3259E+8    0.1761E+9
    2.800       0.3375E+8    0.1766E+9
    2.820       0.3497E+8    0.1771E+9
    2.839       0.3626E+8    0.1775E+9
    2.859       0.3761E+8    0.1779E+9
    2.878       0.3902E+8    0.1782E+9
    2.898       0.4049E+8    0.1784E+9
    2.917       0.4200E+8    0.1786E+9
    2.937       0.4354E+8    0.1786E+9
    2.956       0.4512E+8    0.1786E+9
    2.976       0.4671E+8    0.1784E+9
    2.995       0.4830E+8    0.1782E+9
    3.015       0.4989E+8    0.1778E+9
    3.035       0.5147E+8    0.1774E+9
    3.054       0.5302E+8    0.1769E+9
    3.074       0.5454E+8    0.1762E+9
    3.093       0.5603E+8    0.1756E+9
    3.113       0.5747E+8    0.1748E+9
    3.132       0.5888E+8    0.1740E+9
    3.152       0.6025E+8    0.1731E+9
    3.171       0.6157E+8    0.1722E+9
    3.191       0.6287E+8    0.1713E+9
    3.211       0.6413E+8    0.1703E+9
    3.230       0.6536E+8    0.1692E+9
    3.250       0.6656E+8    0.1681E+9
    3.269       0.6774E+8    0.1670E+9
    3.289       0.6889E+8    0.1658E+9
    3.308       0.7001E+8    0.1646E+9
    3.328       0.7110E+8    0.1633E+9
    3.347       0.7214E+8    0.1619E+9
    3.367       0.7315E+8    0.1604E+9
    3.386       0.7410E+8    0.1590E+9
    3.406       0.7499E+8    0.1574E+9
    3.426       0.7582E+8    0.1558E+9
    3.445       0.7657E+8    0.1541E+9
    3.465       0.7725E+8    0.1524E+9
    3.484       0.7784E+8    0.1506E+9
    3.504       0.7834E+8    0.1488E+9
    3.523       0.7875E+8    0.1469E+9
    3.543       0.7908E+8    0.1451E+9
    3.562       0.7930E+8    0.1432E+9
    3.582       0.7943E+8    0.1413E+9
    3.602       0.7947E+8    0.1393E+9
    3.621       0.7940E+8    0.1374E+9
    3.641       0.7922E+8    0.1355E+9
    3.660       0.7894E+8    0.1335E+9
    3.680       0.7854E+8    0.1316E+9
    3.699       0.7802E+8    0.1297E+9
    3.719       0.7739E+8    0.1278E+9
    3.738       0.7665E+8    0.1260E+9
    3.758       0.7578E+8    0.1242E+9
    3.777       0.7481E+8    0.1225E+9
    3.797       0.7375E+8    0.1209E+9
    3.817       0.7259E+8    0.1194E+9
    3.836       0.7135E+8    0.1180E+9
    3.856       0.7005E+8    0.1167E+9
    3.875       0.6870E+8    0.1154E+9
    3.895       0.6731E+8    0.1143E+9
    3.914       0.6589E+8    0.1134E+9
    3.934       0.6446E+8    0.1125E+9
    3.953       0.6302E+8    0.1117E+9
    3.973       0.6158E+8    0.1110E+9
    3.992       0.6014E+8    0.1103E+9
    4.012       0.5870E+8    0.1098E+9
    4.032       0.5728E+8    0.1094E+9
    4.051       0.5586E+8    0.1090E+9
    4.071       0.5446E+8    0.1087E+9
    4.090       0.5307E+8    0.1084E+9
    4.110       0.5169E+8    0.1082E+9
    4.129       0.5034E+8    0.1081E+9
    4.149       0.4900E+8    0.1081E+9
    4.168       0.4768E+8    0.1081E+9
    4.188       0.4639E+8    0.1082E+9
    4.208       0.4513E+8    0.1083E+9
    4.227       0.4390E+8    0.1085E+9
    4.247       0.4271E+8    0.1088E+9
    4.266       0.4155E+8    0.1091E+9
    4.286       0.4043E+8    0.1095E+9
    4.305       0.3936E+8    0.1099E+9
    4.325       0.3833E+8    0.1103E+9
    4.344       0.3734E+8    0.1108E+9
    4.364       0.3639E+8    0.1113E+9
    4.383       0.3550E+8    0.1119E+9
    4.403       0.3465E+8    0.1125E+9
    4.423       0.3384E+8    0.1131E+9
    4.442       0.3309E+8    0.1138E+9
    4.462       0.3238E+8    0.1144E+9
    4.481       0.3172E+8    0.1151E+9
    4.501       0.3110E+8    0.1158E+9
    4.520       0.3054E+8    0.1165E+9
    4.540       0.3002E+8    0.1172E+9
    4.559       0.2955E+8    0.1180E+9
    4.579       0.2913E+8    0.1187E+9
    4.598       0.2875E+8    0.1194E+9
    4.618       0.2842E+8    0.1202E+9
    4.638       0.2813E+8    0.1209E+9
    4.657       0.2789E+8    0.1216E+9
    4.677       0.2768E+8    0.1223E+9
    4.696       0.2753E+8    0.1231E+9
    4.716       0.2741E+8    0.1238E+9
    4.735       0.2733E+8    0.1244E+9
    4.755       0.2729E+8    0.1251E+9
    4.774       0.2728E+8    0.1258E+9
    4.794       0.2731E+8    0.1264E+9
    4.814       0.2738E+8    0.1270E+9
    4.833       0.2747E+8    0.1276E+9
    4.853       0.2759E+8    0.1281E+9
    4.872       0.2774E+8    0.1286E+9
    4.892       0.2791E+8    0.1291E+9
    4.911       0.2810E+8    0.1296E+9
    4.931       0.2831E+8    0.1300E+9
    4.950       0.2853E+8    0.1304E+9
    4.970       0.2876E+8    0.1307E+9
    4.989       0.2899E+8    0.1310E+9
    5.009       0.2922E+8    0.1313E+9
    5.029       0.2944E+8    0.1315E+9
    5.048       0.2966E+8    0.1317E+9
    5.068       0.2986E+8    0.1318E+9
    5.087       0.3004E+8    0.1319E+9
    5.107       0.3019E+8    0.1320E+9
    5.126       0.3032E+8    0.1321E+9
    5.146       0.3042E+8    0.1321E+9
    5.165       0.3048E+8    0.1321E+9
    5.185       0.3051E+8    0.1321E+9
    5.205       0.3049E+8    0.1321E+9
    5.224       0.3044E+8    0.1321E+9
    5.244       0.3034E+8    0.1321E+9
    5.263       0.3021E+8    0.1321E+9
    5.283       0.3005E+8    0.1321E+9
    5.302       0.2984E+8    0.1321E+9
    5.322       0.2961E+8    0.1322E+9
    5.341       0.2935E+8    0.1323E+9
    5.361       0.2907E+8    0.1324E+9
    5.380       0.2877E+8    0.1326E+9
    5.400       0.2846E+8    0.1328E+9
    5.420       0.2813E+8    0.1330E+9
    5.439       0.2781E+8    0.1333E+9
    5.459       0.2748E+8    0.1336E+9
    5.478       0.2716E+8    0.1339E+9
    5.498       0.2684E+8    0.1343E+9
    5.517       0.2654E+8    0.1347E+9
    5.537       0.2625E+8    0.1352E+9
    5.556       0.2597E+8    0.1356E+9
    5.576       0.2572E+8    0.1361E+9
    5.595       0.2548E+8    0.1366E+9
    5.615       0.2527E+8    0.1372E+9
    5.635       0.2508E+8    0.1377E+9
    5.654       0.2492E+8    0.1383E+9
    5.674       0.2477E+8    0.1389E+9
    5.693       0.2466E+8    0.1395E+9
    5.713       0.2456E+8    0.1401E+9
    5.732       0.2449E+8    0.1408E+9
    5.752       0.2444E+8    0.1414E+9
    5.771       0.2441E+8    0.1420E+9
    5.791       0.2441E+8    0.1426E+9
    5.811       0.2442E+8    0.1433E+9
    5.830       0.2445E+8    0.1439E+9
    5.850       0.2450E+8    0.1446E+9
    5.869       0.2457E+8    0.1452E+9
    5.889       0.2465E+8    0.1458E+9
    5.908       0.2475E+8    0.1465E+9
    5.928       0.2486E+8    0.1471E+9
    5.947       0.2498E+8    0.1478E+9
    5.967       0.2512E+8    0.1484E+9
    5.986       0.2526E+8    0.1490E+9
    6.006       0.2542E+8    0.1497E+9
    6.026       0.2559E+8    0.1503E+9
    6.045       0.2577E+8    0.1510E+9
    6.065       0.2597E+8    0.1516E+9
    6.084       0.2617E+8    0.1523E+9
    6.104       0.2639E+8    0.1530E+9
    6.123       0.2663E+8    0.1536E+9
    6.143       0.2688E+8    0.1543E+9
    6.162       0.2715E+8    0.1550E+9
    6.182       0.2743E+8    0.1557E+9
    6.202       0.2773E+8    0.1563E+9
    6.221       0.2805E+8    0.1570E+9
    6.241       0.2839E+8    0.1577E+9
    6.260       0.2874E+8    0.1584E+9
    6.280       0.2911E+8    0.1591E+9
    6.299       0.2951E+8    0.1598E+9
    6.319       0.2992E+8    0.1604E+9
    6.338       0.3035E+8    0.1611E+9
    6.358       0.3080E+8    0.1618E+9
    6.377       0.3127E+8    0.1625E+9
    6.397       0.3175E+8    0.1631E+9
    6.417       0.3226E+8    0.1638E+9
    6.436       0.3278E+8    0.1644E+9
    6.456       0.3331E+8    0.1651E+9
    6.475       0.3387E+8    0.1657E+9
    6.495       0.3444E+8    0.1663E+9
    6.514       0.3503E+8    0.1670E+9
    6.534       0.3564E+8    0.1676E+9
    6.553       0.3626E+8    0.1682E+9
    6.573       0.3690E+8    0.1688E+9
    6.592       0.3755E+8    0.1694E+9
    6.612       0.3822E+8    0.1700E+9
    6.632       0.3890E+8    0.1705E+9
    6.651       0.3960E+8    0.1711E+9
    6.671       0.4031E+8    0.1716E+9
    6.690       0.4104E+8    0.1722E+9
    6.710       0.4178E+8    0.1727E+9
    6.729       0.4253E+8    0.1732E+9
    6.749       0.4329E+8    0.1737E+9
    6.768       0.4405E+8    0.1742E+9
    6.788       0.4483E+8    0.1746E+9
    6.808       0.4562E+8    0.1751E+9
    6.827       0.4641E+8    0.1755E+9
    6.847       0.4721E+8    0.1759E+9
    6.866       0.4802E+8    0.1764E+9
    6.886       0.4884E+8    0.1768E+9
    6.905       0.4967E+8    0.1772E+9
    6.925       0.5051E+8    0.1775E+9
    6.944       0.5136E+8    0.1779E+9
    6.964       0.5221E+8    0.1783E+9
    6.983       0.5308E+8    0.1786E+9
    7.003       0.5395E+8    0.1789E+9
    7.023       0.5484E+8    0.1793E+9
    7.042       0.5572E+8    0.1795E+9
    7.062       0.5662E+8    0.1798E+9
    7.081       0.5751E+8    0.1801E+9
    7.101       0.5841E+8    0.1803E+9
    7.120       0.5930E+8    0.1805E+9
    7.140       0.6019E+8    0.1807E+9
    7.159       0.6107E+8    0.1809E+9
    7.179       0.6194E+8    0.1811E+9
    7.198       0.6279E+8    0.1812E+9
    7.218       0.6364E+8    0.1814E+9
    7.238       0.6446E+8    0.1815E+9
    7.257       0.6528E+8    0.1816E+9
    7.277       0.6608E+8    0.1818E+9
    7.296       0.6686E+8    0.1819E+9
    7.316       0.6764E+8    0.1821E+9
    7.335       0.6840E+8    0.1822E+9
    7.355       0.6916E+8    0.1824E+9
    7.374       0.6992E+8    0.1826E+9
    7.394       0.7068E+8    0.1828E+9
    7.414       0.7144E+8    0.1831E+9
    7.433       0.7220E+8    0.1833E+9
    7.453       0.7298E+8    0.1836E+9
    7.472       0.7377E+8    0.1839E+9
    7.492       0.7459E+8    0.1843E+9
    7.511       0.7543E+8    0.1846E+9
    7.531       0.7629E+8    0.1850E+9
    7.550       0.7719E+8    0.1854E+9
    7.570       0.7813E+8    0.1858E+9
    7.589       0.7911E+8    0.1862E+9
    7.609       0.8014E+8    0.1867E+9
    7.629       0.8122E+8    0.1871E+9
    7.648       0.8235E+8    0.1875E+9
    7.668       0.8354E+8    0.1880E+9
    7.687       0.8480E+8    0.1884E+9
    7.707       0.8612E+8    0.1888E+9
    7.726       0.8750E+8    0.1892E+9
    7.746       0.8894E+8    0.1895E+9
    7.765       0.9045E+8    0.1898E+9
    7.785       0.9201E+8    0.1901E+9
    7.805       0.9363E+8    0.1903E+9
    7.824       0.9530E+8    0.1904E+9
    7.844       0.9701E+8    0.1905E+9
    7.863       0.9876E+8    0.1904E+9
    7.883       0.1005E+9    0.1903E+9
    7.902       0.1023E+9    0.1901E+9
    7.922       0.1041E+9    0.1898E+9
    7.941       0.1059E+9    0.1894E+9
    7.961       0.1077E+9    0.1889E+9
    7.980       0.1094E+9    0.1883E+9
    8.000       0.1111E+9    0.1876E+9
# 
# 07/31/2018 at 12:10 YAMBO_RT @ narro [start]
# 07/31/2018 at 12:10                  [end]
#
# .-Input file : yambo.in
# | optics                         # [R OPT] Optics
# | bse                            # [R BSE] Bethe Salpeter Equation.
# | BoseTemp= 0.000000     eV      # Bosonic Temperature
# | FFTGvecs= 1721         RL      # [FFT] Plane-waves
# | BSEmod= "retarded"             # [BSE] resonant/retarded/coupling
# | BSKmod= "IP"                   # [BSE] IP/Hartree/HF/ALDA/SEX/BSfxc
# | DipApproach= "Shifted grids"   # [Xd] [G-space v/R-space x/Covariant/Shifted grids]
# | ShiftedPaths= "SHIFTED_grids/shift_1 SHIFTED_grids/shift_2 SHIFTED_grids/shift_3" # [Xd] Shifted grids paths (separated by a space)
# | #EvalKerr                      # [BSE] Compute the Kerr effect
# | #AnHall                        # [BSE] Add the anomalous Hall effect to eps if using length gauge
# | % BEnRange
# |  0.200000 | 8.000000 | eV      # [BSS] Energy range
# | %
# | % BDmRange
# |  0.300000 | 0.500000 | eV      # [BSS] Damping range
# | %
# | BEnSteps=  400                 # [BSS] Energy steps
# | % BLongDir
# | 0.1000E-4 | 0.000    | 0.000    |        # [BSS] [cc] Electric Field
# | %
# | % BSEBands
# |   1 | 13 |                     # [BSK] Bands range
# | %
