#                                                           
# ooooo   oooo ..     ooo        ooo ooooooooo.    .oooo.   
#  `88.   .8" .88.    `88.       .88 `88"   `Y8b  dP"  `Yb  
#   `88. .8" .8"88.    888b     d"88  88     888 88      88 
#    `88.8" .8" `88.   8 Y88. .P  88  88oooo888" 88      88 
#     `88" .88ooo888.  8  `888"   88  88    `88b 88      88 
#      88 .8"     `88. 8    Y     88  88    .88P `8b    d8" 
#     o88o88o      888o8          88 o88bood8P"   `Ybod8P"  
#                                                           
#                                                           
#                Version 4.0.2 Revision 5719                
#                         MPI Build                         
#                 http://www.yambo-code.org                 
#
# EELS @ Q(1)  [q->0 direction]:0.1000E-4  0.000     0.000   
#
#
# - Energies      are Teter 93(XC)
# - Wavefunctions are Teter 93(XC)
#
# - The Green`s function is causal -
# - Using the Length Gauge -
# - [r,Vnl] *is* included -
#
#   BSK|Identifier              :9866
#      |Dimension               :16
#      |Bands                   :7 - 10
#      |Exchange           [res]: yes
#      |Correlation        [res]: no
#      |Kernel`s coupling       : yes
#      |Exchange           [cpl]: yes
#      |Correlation        [cpl]: no
#      |W interaction is bare   : no
#      |ALDA kernel in R-space  : no
#      |RL vectors    [exchange]:3413
#      |E/h energy range    [ev]:-1.000000 - -1.000000
#      |Coupling range     [o/o]: 100.0000 -  100.0000
#
#  E/ev[1]    EEL-Im[2]  EEL-Re[3]  EELo-Im[4] EELo-Re[5]
#
  3.000     0.2425E-2  -.1225     0.2466E-2  -.1153   
  3.010     0.2435E-2  -.1222     0.2476E-2  -.1151   
  3.020     0.2444E-2  -.1220     0.2485E-2  -.1148   
  3.030     0.2454E-2  -.1217     0.2495E-2  -.1146   
  3.040     0.2464E-2  -.1215     0.2505E-2  -.1143   
  3.050     0.2473E-2  -.1213     0.2515E-2  -.1141   
  3.060     0.2483E-2  -.1210     0.2524E-2  -.1138   
  3.070     0.2493E-2  -.1208     0.2534E-2  -.1136   
  3.080     0.2502E-2  -.1205     0.2544E-2  -.1133   
  3.090     0.2512E-2  -.1203     0.2554E-2  -.1131   
  3.100     0.2522E-2  -.1200     0.2564E-2  -.1128   
  3.110     0.2531E-2  -.1198     0.2574E-2  -.1126   
  3.120     0.2541E-2  -.1195     0.2584E-2  -.1123   
  3.130     0.2551E-2  -.1192     0.2593E-2  -.1121   
  3.140     0.2561E-2  -.1190     0.2603E-2  -.1118   
  3.150     0.2570E-2  -.1187     0.2613E-2  -.1115   
  3.160     0.2580E-2  -.1185     0.2623E-2  -.1113   
  3.170     0.2590E-2  -.1182     0.2633E-2  -.1110   
  3.180     0.2600E-2  -.1180     0.2643E-2  -.1107   
  3.190     0.2610E-2  -.1177     0.2653E-2  -.1105   
  3.200     0.2620E-2  -.1174     0.2664E-2  -.1102   
  3.210     0.2629E-2  -.1172     0.2674E-2  -.1099   
  3.220     0.2639E-2  -.1169     0.2684E-2  -.1097   
  3.230     0.2649E-2  -.1166     0.2694E-2  -.1094   
  3.240     0.2659E-2  -.1164     0.2704E-2  -.1091   
  3.250     0.2669E-2  -.1161     0.2714E-2  -.1089   
  3.260     0.2679E-2  -.1158     0.2724E-2  -.1086   
  3.270     0.2689E-2  -.1156     0.2734E-2  -.1083   
  3.280     0.2699E-2  -.1153     0.2745E-2  -.1080   
  3.290     0.2709E-2  -.1150     0.2755E-2  -.1078   
  3.300     0.2719E-2  -.1148     0.2765E-2  -.1075   
  3.310     0.2730E-2  -.1145     0.2775E-2  -.1072   
  3.320     0.2740E-2  -.1142     0.2786E-2  -.1069   
  3.330     0.2750E-2  -.1139     0.2796E-2  -.1067   
  3.340     0.2760E-2  -.1137     0.2806E-2  -.1064   
  3.350     0.2770E-2  -.1134     0.2817E-2  -.1061   
  3.360     0.2780E-2  -.1131     0.2827E-2  -.1058   
  3.370     0.2791E-2  -.1128     0.2838E-2  -.1055   
  3.380     0.2801E-2  -.1126     0.2848E-2  -.1053   
  3.390     0.2811E-2  -.1123     0.2858E-2  -.1050   
  3.400     0.2821E-2  -.1120     0.2869E-2  -.1047   
  3.410     0.2832E-2  -.1117     0.2879E-2  -.1044   
  3.420     0.2842E-2  -.1114     0.2890E-2  -.1041   
  3.430     0.2852E-2  -.1111     0.2900E-2  -.1038   
  3.440     0.2863E-2  -.1109     0.2911E-2  -.1035   
  3.450     0.2873E-2  -.1106     0.2922E-2  -.1032   
  3.460     0.2883E-2  -.1103     0.2932E-2  -.1029   
  3.470     0.2894E-2  -.1100     0.2943E-2  -.1026   
  3.480     0.2904E-2  -.1097     0.2954E-2  -.1024   
  3.490     0.2915E-2  -.1094     0.2964E-2  -.1021   
  3.500     0.2925E-2  -.1091     0.2975E-2  -.1018   
  3.510     0.2936E-2  -.1088     0.2986E-2  -.1015   
  3.520     0.2946E-2  -.1085     0.2996E-2  -.1012   
  3.530     0.2957E-2  -.1082     0.3007E-2  -.1009   
  3.540     0.2968E-2  -.1079     0.3018E-2  -.1006   
  3.550     0.2978E-2  -.1077     0.3029E-2  -.1003   
  3.560     0.2989E-2  -.1074     0.3040E-2  -.9996E-1
  3.570     0.3000E-2  -.1071     0.3050E-2  -.9965E-1
  3.580     0.3010E-2  -.1068     0.3061E-2  -.9935E-1
  3.590     0.3021E-2  -.1065     0.3072E-2  -.9904E-1
  3.600     0.3032E-2  -.1061     0.3083E-2  -.9873E-1
  3.610     0.3042E-2  -.1058     0.3094E-2  -.9842E-1
  3.620     0.3053E-2  -.1055     0.3105E-2  -.9811E-1
  3.630     0.3064E-2  -.1052     0.3116E-2  -.9780E-1
  3.640     0.3075E-2  -.1049     0.3127E-2  -.9749E-1
  3.650     0.3086E-2  -.1046     0.3138E-2  -.9718E-1
  3.660     0.3097E-2  -.1043     0.3149E-2  -.9686E-1
  3.670     0.3108E-2  -.1040     0.3160E-2  -.9655E-1
  3.680     0.3119E-2  -.1037     0.3172E-2  -.9623E-1
  3.690     0.3129E-2  -.1034     0.3183E-2  -.9591E-1
  3.700     0.3140E-2  -.1031     0.3194E-2  -.9560E-1
  3.710     0.3152E-2  -.1028     0.3205E-2  -.9528E-1
  3.720     0.3163E-2  -.1024     0.3217E-2  -.9495E-1
  3.730     0.3174E-2  -.1021     0.3228E-2  -.9463E-1
  3.740     0.3185E-2  -.1018     0.3239E-2  -.9431E-1
  3.750     0.3196E-2  -.1015     0.3250E-2  -.9398E-1
  3.760     0.3207E-2  -.1012     0.3262E-2  -.9366E-1
  3.770     0.3218E-2  -.1008     0.3273E-2  -.9333E-1
  3.780     0.3229E-2  -.1005     0.3285E-2  -.9300E-1
  3.790     0.3241E-2  -.1002     0.3296E-2  -.9268E-1
  3.800     0.3252E-2  -.9987E-1  0.3308E-2  -.9235E-1
  3.810     0.3263E-2  -.9954E-1  0.3319E-2  -.9201E-1
  3.820     0.3275E-2  -.9922E-1  0.3331E-2  -.9168E-1
  3.830     0.3286E-2  -.9889E-1  0.3342E-2  -.9135E-1
  3.840     0.3297E-2  -.9856E-1  0.3354E-2  -.9101E-1
  3.850     0.3309E-2  -.9823E-1  0.3365E-2  -.9068E-1
  3.860     0.3320E-2  -.9790E-1  0.3377E-2  -.9034E-1
  3.870     0.3332E-2  -.9757E-1  0.3389E-2  -.9000E-1
  3.880     0.3343E-2  -.9723E-1  0.3401E-2  -.8966E-1
  3.890     0.3355E-2  -.9690E-1  0.3412E-2  -.8932E-1
  3.900     0.3366E-2  -.9656E-1  0.3424E-2  -.8898E-1
  3.910     0.3378E-2  -.9622E-1  0.3436E-2  -.8864E-1
  3.920     0.3390E-2  -.9589E-1  0.3448E-2  -.8829E-1
  3.930     0.3401E-2  -.9555E-1  0.3460E-2  -.8795E-1
  3.940     0.3413E-2  -.9521E-1  0.3472E-2  -.8760E-1
  3.950     0.3425E-2  -.9486E-1  0.3484E-2  -.8726E-1
  3.960     0.3437E-2  -.9452E-1  0.3496E-2  -.8691E-1
  3.970     0.3448E-2  -.9418E-1  0.3508E-2  -.8656E-1
  3.980     0.3460E-2  -.9383E-1  0.3520E-2  -.8620E-1
  3.990     0.3472E-2  -.9349E-1  0.3532E-2  -.8585E-1
  4.000     0.3484E-2  -.9314E-1  0.3544E-2  -.8550E-1
  4.010     0.3496E-2  -.9279E-1  0.3556E-2  -.8514E-1
  4.020     0.3508E-2  -.9244E-1  0.3568E-2  -.8479E-1
  4.030     0.3520E-2  -.9209E-1  0.3581E-2  -.8443E-1
  4.040     0.3532E-2  -.9174E-1  0.3593E-2  -.8407E-1
  4.050     0.3544E-2  -.9138E-1  0.3605E-2  -.8371E-1
  4.060     0.3556E-2  -.9103E-1  0.3618E-2  -.8335E-1
  4.070     0.3568E-2  -.9067E-1  0.3630E-2  -.8299E-1
  4.080     0.3581E-2  -.9031E-1  0.3642E-2  -.8263E-1
  4.090     0.3593E-2  -.8995E-1  0.3655E-2  -.8226E-1
  4.100     0.3605E-2  -.8959E-1  0.3667E-2  -.8189E-1
  4.110     0.3618E-2  -.8923E-1  0.3680E-2  -.8153E-1
  4.120     0.3630E-2  -.8887E-1  0.3693E-2  -.8116E-1
  4.130     0.3642E-2  -.8851E-1  0.3705E-2  -.8079E-1
  4.140     0.3655E-2  -.8814E-1  0.3718E-2  -.8042E-1
  4.150     0.3667E-2  -.8778E-1  0.3731E-2  -.8005E-1
  4.160     0.3680E-2  -.8741E-1  0.3743E-2  -.7967E-1
  4.170     0.3692E-2  -.8704E-1  0.3756E-2  -.7930E-1
  4.180     0.3705E-2  -.8667E-1  0.3769E-2  -.7892E-1
  4.190     0.3718E-2  -.8630E-1  0.3782E-2  -.7854E-1
  4.200     0.3730E-2  -.8593E-1  0.3795E-2  -.7817E-1
  4.210     0.3743E-2  -.8556E-1  0.3808E-2  -.7779E-1
  4.220     0.3756E-2  -.8518E-1  0.3821E-2  -.7740E-1
  4.230     0.3769E-2  -.8480E-1  0.3834E-2  -.7702E-1
  4.240     0.3782E-2  -.8443E-1  0.3847E-2  -.7664E-1
  4.250     0.3795E-2  -.8405E-1  0.3860E-2  -.7625E-1
  4.260     0.3808E-2  -.8367E-1  0.3873E-2  -.7587E-1
  4.270     0.3821E-2  -.8329E-1  0.3887E-2  -.7548E-1
  4.280     0.3834E-2  -.8290E-1  0.3900E-2  -.7509E-1
  4.290     0.3847E-2  -.8252E-1  0.3913E-2  -.7470E-1
  4.300     0.3860E-2  -.8214E-1  0.3927E-2  -.7431E-1
  4.310     0.3873E-2  -.8175E-1  0.3940E-2  -.7391E-1
  4.320     0.3886E-2  -.8136E-1  0.3954E-2  -.7352E-1
  4.330     0.3900E-2  -.8097E-1  0.3967E-2  -.7312E-1
  4.340     0.3913E-2  -.8058E-1  0.3981E-2  -.7273E-1
  4.350     0.3927E-2  -.8019E-1  0.3995E-2  -.7233E-1
  4.360     0.3940E-2  -.7980E-1  0.4009E-2  -.7193E-1
  4.370     0.3954E-2  -.7940E-1  0.4022E-2  -.7153E-1
  4.380     0.3967E-2  -.7901E-1  0.4036E-2  -.7112E-1
  4.390     0.3981E-2  -.7861E-1  0.4050E-2  -.7072E-1
  4.400     0.3995E-2  -.7821E-1  0.4064E-2  -.7031E-1
  4.410     0.4009E-2  -.7781E-1  0.4078E-2  -.6991E-1
  4.420     0.4022E-2  -.7741E-1  0.4092E-2  -.6950E-1
  4.430     0.4036E-2  -.7701E-1  0.4106E-2  -.6909E-1
  4.440     0.4050E-2  -.7660E-1  0.4121E-2  -.6868E-1
  4.450     0.4064E-2  -.7620E-1  0.4135E-2  -.6826E-1
  4.460     0.4078E-2  -.7579E-1  0.4149E-2  -.6785E-1
  4.470     0.4093E-2  -.7538E-1  0.4164E-2  -.6744E-1
  4.480     0.4107E-2  -.7497E-1  0.4178E-2  -.6702E-1
  4.490     0.4121E-2  -.7456E-1  0.4193E-2  -.6660E-1
  4.500     0.4136E-2  -.7415E-1  0.4207E-2  -.6618E-1
  4.510     0.4150E-2  -.7373E-1  0.4222E-2  -.6576E-1
  4.520     0.4165E-2  -.7332E-1  0.4237E-2  -.6534E-1
  4.530     0.4179E-2  -.7290E-1  0.4252E-2  -.6491E-1
  4.540     0.4194E-2  -.7248E-1  0.4267E-2  -.6449E-1
  4.550     0.4209E-2  -.7206E-1  0.4282E-2  -.6406E-1
  4.560     0.4223E-2  -.7164E-1  0.4297E-2  -.6363E-1
  4.570     0.4238E-2  -.7122E-1  0.4312E-2  -.6320E-1
  4.580     0.4253E-2  -.7079E-1  0.4327E-2  -.6277E-1
  4.590     0.4269E-2  -.7037E-1  0.4343E-2  -.6234E-1
  4.600     0.4284E-2  -.6994E-1  0.4358E-2  -.6190E-1
  4.610     0.4299E-2  -.6951E-1  0.4373E-2  -.6146E-1
  4.620     0.4314E-2  -.6908E-1  0.4389E-2  -.6103E-1
  4.630     0.4330E-2  -.6865E-1  0.4405E-2  -.6059E-1
  4.640     0.4345E-2  -.6822E-1  0.4421E-2  -.6015E-1
  4.650     0.4361E-2  -.6778E-1  0.4436E-2  -.5970E-1
  4.660     0.4377E-2  -.6735E-1  0.4452E-2  -.5926E-1
  4.670     0.4393E-2  -.6691E-1  0.4469E-2  -.5881E-1
  4.680     0.4408E-2  -.6647E-1  0.4485E-2  -.5837E-1
  4.690     0.4425E-2  -.6603E-1  0.4501E-2  -.5792E-1
  4.700     0.4441E-2  -.6558E-1  0.4517E-2  -.5747E-1
  4.710     0.4457E-2  -.6514E-1  0.4534E-2  -.5702E-1
  4.720     0.4473E-2  -.6469E-1  0.4551E-2  -.5656E-1
  4.730     0.4490E-2  -.6425E-1  0.4567E-2  -.5611E-1
  4.740     0.4506E-2  -.6380E-1  0.4584E-2  -.5565E-1
  4.750     0.4523E-2  -.6334E-1  0.4601E-2  -.5519E-1
  4.760     0.4540E-2  -.6289E-1  0.4618E-2  -.5473E-1
  4.770     0.4557E-2  -.6244E-1  0.4636E-2  -.5427E-1
  4.780     0.4574E-2  -.6198E-1  0.4653E-2  -.5380E-1
  4.790     0.4592E-2  -.6152E-1  0.4670E-2  -.5334E-1
  4.800     0.4609E-2  -.6106E-1  0.4688E-2  -.5287E-1
  4.810     0.4627E-2  -.6060E-1  0.4706E-2  -.5240E-1
  4.820     0.4644E-2  -.6014E-1  0.4724E-2  -.5193E-1
  4.830     0.4662E-2  -.5968E-1  0.4742E-2  -.5146E-1
  4.840     0.4680E-2  -.5921E-1  0.4760E-2  -.5098E-1
  4.850     0.4698E-2  -.5874E-1  0.4779E-2  -.5051E-1
  4.860     0.4717E-2  -.5827E-1  0.4797E-2  -.5003E-1
  4.870     0.4735E-2  -.5780E-1  0.4816E-2  -.4955E-1
  4.880     0.4754E-2  -.5732E-1  0.4835E-2  -.4907E-1
  4.890     0.4773E-2  -.5685E-1  0.4854E-2  -.4858E-1
  4.900     0.4792E-2  -.5637E-1  0.4873E-2  -.4810E-1
  4.910     0.4811E-2  -.5589E-1  0.4893E-2  -.4761E-1
  4.920     0.4831E-2  -.5541E-1  0.4913E-2  -.4712E-1
  4.930     0.4851E-2  -.5493E-1  0.4933E-2  -.4663E-1
  4.940     0.4871E-2  -.5444E-1  0.4953E-2  -.4613E-1
  4.950     0.4891E-2  -.5395E-1  0.4973E-2  -.4564E-1
  4.960     0.4911E-2  -.5346E-1  0.4994E-2  -.4514E-1
  4.970     0.4932E-2  -.5297E-1  0.5015E-2  -.4464E-1
  4.980     0.4953E-2  -.5248E-1  0.5036E-2  -.4414E-1
  4.990     0.4974E-2  -.5198E-1  0.5057E-2  -.4364E-1
  5.000     0.4996E-2  -.5149E-1  0.5079E-2  -.4313E-1
    5.0100     0.0050    -0.0510     0.0051    -0.0426
    5.0200     0.0050    -0.0505     0.0051    -0.0421
    5.0300     0.0051    -0.0500     0.0051    -0.0416
    5.0400     0.0051    -0.0495     0.0052    -0.0411
    5.0500     0.0051    -0.0490     0.0052    -0.0406
    5.0600     0.0051    -0.0485     0.0052    -0.0400
    5.0700     0.0052    -0.0479     0.0052    -0.0395
    5.0800     0.0052    -0.0474     0.0053    -0.0390
    5.0900     0.0052    -0.0469     0.0053    -0.0385
    5.1000     0.0052    -0.0464     0.0053    -0.0379
    5.1100     0.0053    -0.0459     0.0053    -0.0374
    5.1200     0.0053    -0.0453     0.0054    -0.0369
    5.1300     0.0053    -0.0448     0.0054    -0.0363
    5.1400     0.0053    -0.0443     0.0054    -0.0358
    5.1500     0.0054    -0.0438     0.0054    -0.0353
    5.1600     0.0054    -0.0432     0.0055    -0.0347
    5.1700     0.0054    -0.0427     0.0055    -0.0342
    5.1800     0.0054    -0.0421     0.0055    -0.0336
    5.1900     0.0055    -0.0416     0.0056    -0.0331
    5.2000     0.0055    -0.0410     0.0056    -0.0325
    5.2100     0.0055    -0.0405     0.0056    -0.0320
    5.2200     0.0056    -0.0399     0.0057    -0.0314
    5.2300     0.0056    -0.0394     0.0057    -0.0308
    5.2400     0.0056    -0.0388     0.0057    -0.0303
    5.2500     0.0057    -0.0383     0.0058    -0.0297
    5.2600     0.0057    -0.0377     0.0058    -0.0291
    5.2700     0.0057    -0.0371     0.0058    -0.0285
    5.2800     0.0058    -0.0366     0.0059    -0.0280
    5.2900     0.0058    -0.0360     0.0059    -0.0274
    5.3000     0.0059    -0.0354     0.0059    -0.0268
    5.3100     0.0059    -0.0348     0.0060    -0.0262
    5.3200     0.0059    -0.0342     0.0060    -0.0256
    5.3300     0.0060    -0.0336     0.0061    -0.0250
    5.3400     0.0060    -0.0330     0.0061    -0.0244
    5.3500     0.0061    -0.0325     0.0062    -0.0238
    5.3600     0.0061    -0.0318     0.0062    -0.0232
    5.3700     0.0062    -0.0312     0.0063    -0.0226
    5.3800     0.0062    -0.0306     0.0063    -0.0219
    5.3900     0.0063    -0.0300     0.0064    -0.0213
    5.4000     0.0063    -0.0294     0.0064    -0.0207
    5.4100     0.0064    -0.0288     0.0065    -0.0201
    5.4200     0.0065    -0.0281     0.0065    -0.0194
    5.4300     0.0065    -0.0275     0.0066    -0.0188
    5.4400     0.0066    -0.0268     0.0067    -0.0181
    5.4500     0.0067    -0.0262     0.0067    -0.0175
    5.4600     0.0067    -0.0255     0.0068    -0.0168
    5.4700     0.0068    -0.0249     0.0069    -0.0161
    5.4800     0.0069    -0.0242     0.0070    -0.0154
    5.4900     0.0070    -0.0235     0.0071    -0.0148
    5.5000     0.0071    -0.0228     0.0071    -0.0141
    5.5100     0.0072    -0.0221     0.0072    -0.0134
    5.5200     0.0073    -0.0214     0.0073    -0.0127
    5.5300     0.0074    -0.0207     0.0075    -0.0120
    5.5400     0.0075    -0.0200     0.0076    -0.0112
    5.5500     0.0076    -0.0193     0.0077    -0.0105
    5.5600     0.0078    -0.0186     0.0078    -0.0098
    5.5700     0.0079    -0.0178     0.0080    -0.0090
    5.5800     0.0081    -0.0171     0.0081    -0.0082
    5.5900     0.0082    -0.0163     0.0083    -0.0075
    5.6000     0.0084    -0.0155     0.0085    -0.0067
    5.6100     0.0086    -0.0147     0.0087    -0.0059
  5.620     0.8817E-2  -.1392E-1  0.8860E-2  -.5082E-2
  5.630     0.9046E-2  -.1310E-1  0.9087E-2  -.4262E-2
  5.640     0.9296E-2  -.1227E-1  0.9334E-2  -.3429E-2
  5.650     0.9570E-2  -.1143E-1  0.9605E-2  -.2583E-2
  5.660     0.9869E-2  -.1057E-1  0.9903E-2  -.1724E-2
  5.670     0.1020E-1  -.9702E-2  0.1023E-1  -.8517E-3
  5.680     0.1056E-1  -.8816E-2  0.1059E-1  0.3379E-4
  5.690     0.1096E-1  -.7917E-2  0.1099E-1  0.9317E-3
  5.700     0.1141E-1  -.7004E-2  0.1143E-1  0.1841E-2
  5.710     0.1190E-1  -.6080E-2  0.1193E-1  0.2760E-2
  5.720     0.1245E-1  -.5147E-2  0.1248E-1  0.3686E-2
  5.730     0.1307E-1  -.4207E-2  0.1309E-1  0.4615E-2
  5.740     0.1375E-1  -.3265E-2  0.1378E-1  0.5541E-2
  5.750     0.1452E-1  -.2329E-2  0.1455E-1  0.6457E-2
  5.760     0.1539E-1  -.1406E-2  0.1541E-1  0.7353E-2
  5.770     0.1636E-1  -.5101E-3  0.1638E-1  0.8214E-2
  5.780     0.1745E-1  0.3428E-3  0.1747E-1  0.9022E-2
  5.790     0.1867E-1  0.1130E-2  0.1868E-1  0.9751E-2
  5.800     0.2003E-1  0.1824E-2  0.2003E-1  0.1037E-1
  5.810     0.2153E-1  0.2386E-2  0.2150E-1  0.1084E-1
  5.820     0.2318E-1  0.2772E-2  0.2310E-1  0.1111E-1
  5.830     0.2496E-1  0.2928E-2  0.2480E-1  0.1114E-1
  5.840     0.2683E-1  0.2795E-2  0.2655E-1  0.1086E-1
  5.850     0.2875E-1  0.2315E-2  0.2827E-1  0.1023E-1
  5.860     0.3062E-1  0.1438E-2  0.2989E-1  0.9216E-2
  5.870     0.3234E-1  0.1411E-3  0.3128E-1  0.7830E-2
  5.880     0.3378E-1  -.1561E-2  0.3231E-1  0.6119E-2
  5.890     0.3480E-1  -.3601E-2  0.3289E-1  0.4182E-2
  5.900     0.3530E-1  -.5857E-2  0.3296E-1  0.2157E-2
  5.910     0.3522E-1  -.8169E-2  0.3250E-1  0.2022E-3
  5.920     0.3458E-1  -.1037E-1  0.3158E-1  -.1541E-2
  5.930     0.3345E-1  -.1230E-1  0.3029E-1  -.2965E-2
  5.940     0.3194E-1  -.1387E-1  0.2875E-1  -.4014E-2
  5.950     0.3019E-1  -.1501E-1  0.2708E-1  -.4676E-2
  5.960     0.2833E-1  -.1574E-1  0.2538E-1  -.4977E-2
  5.970     0.2646E-1  -.1608E-1  0.2373E-1  -.4961E-2
  5.980     0.2465E-1  -.1608E-1  0.2216E-1  -.4683E-2
  5.990     0.2294E-1  -.1582E-1  0.2072E-1  -.4197E-2
  6.000     0.2138E-1  -.1534E-1  0.1941E-1  -.3549E-2
  6.010     0.1996E-1  -.1469E-1  0.1823E-1  -.2780E-2
  6.020     0.1868E-1  -.1392E-1  0.1718E-1  -.1924E-2
  6.030     0.1754E-1  -.1307E-1  0.1625E-1  -.1006E-2
  6.040     0.1652E-1  -.1215E-1  0.1542E-1  -.4555E-4
  6.050     0.1562E-1  -.1120E-1  0.1469E-1  0.9427E-3
  6.060     0.1483E-1  -.1021E-1  0.1405E-1  0.1948E-2
  6.070     0.1412E-1  -.9217E-2  0.1349E-1  0.2961E-2
  6.080     0.1349E-1  -.8214E-2  0.1299E-1  0.3978E-2
  6.090     0.1293E-1  -.7211E-2  0.1255E-1  0.4994E-2
  6.100     0.1244E-1  -.6211E-2  0.1216E-1  0.6006E-2
  6.110     0.1200E-1  -.5219E-2  0.1182E-1  0.7012E-2
  6.120     0.1160E-1  -.4235E-2  0.1152E-1  0.8012E-2
  6.130     0.1125E-1  -.3260E-2  0.1126E-1  0.9005E-2
  6.140     0.1094E-1  -.2296E-2  0.1103E-1  0.9991E-2
  6.150     0.1065E-1  -.1342E-2  0.1083E-1  0.1097E-1
  6.160     0.1040E-1  -.3994E-3  0.1066E-1  0.1194E-1
  6.170     0.1017E-1  0.5332E-3  0.1051E-1  0.1290E-1
  6.180     0.9963E-2  0.1456E-2  0.1038E-1  0.1386E-1
  6.190     0.9776E-2  0.2369E-2  0.1028E-1  0.1482E-1
  6.200     0.9607E-2  0.3273E-2  0.1019E-1  0.1576E-1
  6.210     0.9454E-2  0.4168E-2  0.1013E-1  0.1671E-1
  6.220     0.9316E-2  0.5055E-2  0.1008E-1  0.1764E-1
  6.230     0.9190E-2  0.5934E-2  0.1005E-1  0.1858E-1
    6.2400     0.0091     0.0068     0.0100     0.0195
    6.2500     0.0090     0.0077     0.0100     0.0204
    6.2600     0.0089     0.0085     0.0101     0.0214
    6.2700     0.0088     0.0094     0.0101     0.0223
    6.2800     0.0087     0.0102     0.0102     0.0232
    6.2900     0.0086     0.0111     0.0103     0.0241
    6.3000     0.0086     0.0119     0.0104     0.0250
    6.3100     0.0085     0.0127     0.0105     0.0259
    6.3200     0.0085     0.0136     0.0107     0.0268
    6.3300     0.0084     0.0144     0.0109     0.0277
    6.3400     0.0084     0.0152     0.0111     0.0286
    6.3500     0.0083     0.0160     0.0114     0.0294
    6.3600     0.0083     0.0169     0.0117     0.0302
    6.3700     0.0083     0.0177     0.0120     0.0310
    6.3800     0.0082     0.0185     0.0124     0.0317
    6.3900     0.0082     0.0193     0.0128     0.0324
    6.4000     0.0082     0.0201     0.0132     0.0330
    6.4100     0.0082     0.0209     0.0136     0.0334
    6.4200     0.0082     0.0217     0.0140     0.0338
    6.4300     0.0082     0.0225     0.0143     0.0341
    6.4400     0.0081     0.0233     0.0145     0.0344
    6.4500     0.0081     0.0241     0.0146     0.0345
    6.4600     0.0081     0.0250     0.0146     0.0347
    6.4700     0.0081     0.0258     0.0145     0.0348
    6.4800     0.0081     0.0266     0.0142     0.0351
    6.4900     0.0081     0.0274     0.0139     0.0354
    6.5000     0.0081     0.0282     0.0135     0.0357
    6.5100     0.0082     0.0290     0.0131     0.0362
    6.5200     0.0082     0.0298     0.0127     0.0368
    6.5300     0.0082     0.0306     0.0123     0.0375
    6.5400     0.0082     0.0314     0.0119     0.0382
    6.5500     0.0082     0.0322     0.0115     0.0389
    6.5600     0.0083     0.0330     0.0112     0.0397
    6.5700     0.0083     0.0337     0.0109     0.0406
    6.5800     0.0083     0.0345     0.0106     0.0414
    6.5900     0.0084     0.0353     0.0104     0.0423
    6.6000     0.0084     0.0361     0.0102     0.0432
    6.6100     0.0084     0.0369     0.0100     0.0440
    6.6200     0.0085     0.0376     0.0099     0.0449
    6.6300     0.0085     0.0384     0.0097     0.0458
    6.6400     0.0085     0.0392     0.0096     0.0467
    6.6500     0.0085     0.0399     0.0095     0.0476
    6.6600     0.0085     0.0407     0.0094     0.0485
    6.6700     0.0085     0.0414     0.0093     0.0494
    6.6800     0.0085     0.0422     0.0092     0.0503
    6.6900     0.0085     0.0430     0.0092     0.0512
    6.7000     0.0085     0.0437     0.0091     0.0521
    6.7100     0.0085     0.0445     0.0091     0.0529
    6.7200     0.0085     0.0453     0.0090     0.0538
    6.7300     0.0084     0.0461     0.0090     0.0547
    6.7400     0.0084     0.0469     0.0090     0.0556
    6.7500     0.0084     0.0477     0.0089     0.0565
    6.7600     0.0084     0.0485     0.0089     0.0573
    6.7700     0.0084     0.0494     0.0089     0.0582
    6.7800     0.0084     0.0502     0.0089     0.0591
    6.7900     0.0084     0.0510     0.0089     0.0600
    6.8000     0.0084     0.0518     0.0089     0.0608
    6.8100     0.0084     0.0527     0.0088     0.0617
    6.8200     0.0084     0.0535     0.0088     0.0626
    6.8300     0.0084     0.0543     0.0088     0.0635
    6.8400     0.0084     0.0552     0.0088     0.0643
    6.8500     0.0084     0.0560     0.0088     0.0652
    6.8600     0.0084     0.0568     0.0088     0.0661
    6.8700     0.0084     0.0577     0.0088     0.0670
    6.8800     0.0084     0.0585     0.0088     0.0679
    6.8900     0.0085     0.0593     0.0088     0.0687
    6.9000     0.0085     0.0602     0.0088     0.0696
    6.9100     0.0085     0.0610     0.0088     0.0705
    6.9200     0.0085     0.0619     0.0089     0.0714
    6.9300     0.0085     0.0627     0.0089     0.0723
    6.9400     0.0085     0.0636     0.0089     0.0731
    6.9500     0.0085     0.0644     0.0089     0.0740
    6.9600     0.0086     0.0653     0.0089     0.0749
    6.9700     0.0086     0.0661     0.0089     0.0758
    6.9800     0.0086     0.0670     0.0089     0.0767
    6.9900     0.0086     0.0679     0.0089     0.0776
    7.0000     0.0086     0.0687     0.0089     0.0785
    7.0100     0.0086     0.0696     0.0090     0.0794
    7.0200     0.0087     0.0704     0.0090     0.0803
    7.0300     0.0087     0.0713     0.0090     0.0812
    7.0400     0.0087     0.0722     0.0090     0.0821
    7.0500     0.0087     0.0730     0.0090     0.0830
    7.0600     0.0087     0.0739     0.0090     0.0839
    7.0700     0.0088     0.0748     0.0091     0.0848
    7.0800     0.0088     0.0757     0.0091     0.0857
    7.0900     0.0088     0.0766     0.0091     0.0866
    7.1000     0.0088     0.0774     0.0091     0.0875
    7.1100     0.0089     0.0783     0.0091     0.0884
    7.1200     0.0089     0.0792     0.0091     0.0893
    7.1300     0.0089     0.0801     0.0092     0.0902
    7.1400     0.0089     0.0810     0.0092     0.0911
    7.1500     0.0089     0.0819     0.0092     0.0921
    7.1600     0.0090     0.0828     0.0092     0.0930
    7.1700     0.0090     0.0837     0.0093     0.0939
    7.1800     0.0090     0.0846     0.0093     0.0948
    7.1900     0.0090     0.0855     0.0093     0.0958
    7.2000     0.0091     0.0864     0.0093     0.0967
    7.2100     0.0091     0.0873     0.0093     0.0976
    7.2200     0.0091     0.0882     0.0094     0.0985
    7.2300     0.0091     0.0891     0.0094     0.0995
    7.2400     0.0092     0.0900     0.0094     0.1004
    7.2500     0.0092     0.0909     0.0094     0.1014
    7.2600     0.0092     0.0918     0.0095     0.1023
    7.2700     0.0092     0.0928     0.0095     0.1033
    7.2800     0.0092     0.0937     0.0095     0.1042
    7.2900     0.0093     0.0946     0.0095     0.1052
    7.3000     0.0093     0.0955     0.0095     0.1061
    7.3100     0.0093     0.0965     0.0096     0.1071
    7.3200     0.0094     0.0974     0.0096     0.1080
    7.3300     0.0094     0.0983     0.0096     0.1090
    7.3400     0.0094     0.0993     0.0096     0.1099
    7.3500     0.0094     0.1002     0.0097     0.1109
    7.3600     0.0095     0.1012     0.0097     0.1119
    7.3700     0.0095     0.1021     0.0097     0.1128
    7.3800     0.0095     0.1031     0.0098     0.1138
    7.3900     0.0095     0.1040     0.0098     0.1148
    7.4000     0.0096     0.1050     0.0098     0.1158
    7.4100     0.0096     0.1059     0.0098     0.1168
    7.4200     0.0096     0.1069     0.0099     0.1177
    7.4300     0.0096     0.1078     0.0099     0.1187
    7.4400     0.0097     0.1088     0.0099     0.1197
    7.4500     0.0097     0.1098     0.0099     0.1207
    7.4600     0.0097     0.1107     0.0100     0.1217
    7.4700     0.0098     0.1117     0.0100     0.1227
    7.4800     0.0098     0.1127     0.0100     0.1237
    7.4900     0.0098     0.1137     0.0100     0.1247
    7.5000     0.0098     0.1147     0.0101     0.1257
    7.5100     0.0099     0.1156     0.0101     0.1267
    7.5200     0.0099     0.1166     0.0101     0.1277
    7.5300     0.0099     0.1176     0.0102     0.1287
    7.5400     0.0100     0.1186     0.0102     0.1298
    7.5500     0.0100     0.1196     0.0102     0.1308
   7.56000    0.01001    0.12060    0.01025    0.13180
   7.57000    0.01004    0.12160    0.01028    0.13283
   7.58000    0.01007    0.12261    0.01031    0.13386
   7.59000    0.01010    0.12362    0.01034    0.13489
   7.60000    0.01013    0.12463    0.01037    0.13592
   7.61000    0.01016    0.12564    0.01040    0.13696
   7.62000    0.01019    0.12666    0.01043    0.13800
   7.63000    0.01022    0.12768    0.01046    0.13905
   7.64000    0.01025    0.12870    0.01049    0.14009
   7.65000    0.01028    0.12973    0.01052    0.14114
   7.66000    0.01031    0.13075    0.01055    0.14220
   7.67000    0.01034    0.13179    0.01058    0.14325
   7.68000    0.01037    0.13282    0.01061    0.14431
   7.69000    0.01040    0.13386    0.01064    0.14537
   7.70000    0.01043    0.13490    0.01068    0.14644
   7.71000    0.01046    0.13594    0.01071    0.14751
   7.72000    0.01049    0.13699    0.01074    0.14858
   7.73000    0.01052    0.13804    0.01077    0.14965
   7.74000    0.01056    0.13909    0.01080    0.15073
   7.75000    0.01059    0.14015    0.01084    0.15181
   7.76000    0.01062    0.14121    0.01087    0.15290
   7.77000    0.01065    0.14227    0.01090    0.15399
   7.78000    0.01068    0.14334    0.01093    0.15508
   7.79000    0.01072    0.14441    0.01097    0.15617
   7.80000    0.01075    0.14548    0.01100    0.15727
   7.81000    0.01078    0.14656    0.01103    0.15837
   7.82000    0.01081    0.14764    0.01107    0.15948
   7.83000    0.01085    0.14872    0.01110    0.16058
   7.84000    0.01088    0.14981    0.01113    0.16169
   7.85000    0.01091    0.15090    0.01117    0.16281
   7.86000    0.01095    0.15199    0.01120    0.16393
   7.87000    0.01098    0.15308    0.01123    0.16505
   7.88000    0.01101    0.15418    0.01127    0.16617
   7.89000    0.01105    0.15529    0.01130    0.16730
   7.90000    0.01108    0.15639    0.01134    0.16843
   7.91000    0.01112    0.15750    0.01137    0.16957
   7.92000    0.01115    0.15861    0.01141    0.17071
   7.93000    0.01119    0.15973    0.01144    0.17185
   7.94000    0.01122    0.16085    0.01148    0.17299
   7.95000    0.01125    0.16197    0.01151    0.17414
   7.96000    0.01129    0.16310    0.01155    0.17530
   7.97000    0.01132    0.16423    0.01159    0.17645
   7.98000    0.01136    0.16536    0.01162    0.17761
   7.99000    0.01140    0.16650    0.01166    0.17877
   8.00000    0.01143    0.16764    0.01169    0.17994
# 
# 05/04/2016 at 18:38 YAMBO_RT @ narro [start]
# 05/04/2016 at 18:38                  [end]
#
# .-Input file : yambo.in
# | optics                       # [R OPT] Optics
# | bse                          # [R BSE] Bethe Salpeter Equation.
# | bsk                          # [R BSK] Bethe Salpeter Equation kernel
# | bss                          # [R BSS] Bethe Salpeter Equation solver
# | BoseTemp= 0.000000     eV    # Bosonic Temperature
# | FFTGvecs=  3317        RL    # [FFT] Plane-waves
# | BS_nCPU_invert= 1            # [PARALLEL] CPUs for matrix inversion
# | BS_nCPU_diago= 1             # [PARALLEL] CPUs for matrix diagonalization
# | BSEmod= "coupling"           # [BSE] resonant/causal/coupling
# | BSKmod= "Hartree"            # [BSE] IP/Hartree/HF/ALDA/SEX/BSfxc
# | BSSmod= "d"                  # [BSS] (h)aydock/(d)iagonalization/(i)nversion/(t)ddft`
# | BSENGexx=  3413        RL    # [BSK] Exchange components
# | Gauge= "length"              # [BSE] Gauge (length|velocity)
# | % BEnRange
# |  3.000000 | 8.000000 | eV    # [BSS] Energy range
# | %
# | % BDmRange
# |   0.10000 |  0.10000 | eV    # [BSS] Damping range
# | %
# | BEnSteps=  501               # [BSS] Energy steps
# | % BLongDir
# | 0.1000E-4 | 0.000    | 0.000    |        # [BSS] [cc] Electric Field
# | %
# | % BSEBands
# |   7 | 10 |                   # [BSK] Bands range
# | %
