#                                                           
# ooooo   oooo ..     ooo        ooo ooooooooo.    .oooo.   
#  `88.   .8" .88.    `88.       .88 `88"   `Y8b  dP"  `Yb  
#   `88. .8" .8"88.    888b     d"88  88     888 88      88 
#    `88.8" .8" `88.   8 Y88. .P  88  88oooo888" 88      88 
#     `88" .88ooo888.  8  `888"   88  88    `88b 88      88 
#      88 .8"     `88. 8    Y     88  88    .88P `8b    d8" 
#     o88o88o      888o8          88 o88bood8P"   `Ybod8P"  
#                                                           
#                                                           
#                Version 4.0.2 Revision 5719                
#                         MPI Build                         
#                 http://www.yambo-code.org                 
#
# Absorption @ Q(1) [q->0 direction] :0.1000E-4  0.000     0.000   
#
#
# - Energies      are Teter 93(XC)
# - Wavefunctions are Teter 93(XC)
#
# - The Green`s function is causal -
# - Using the Length Gauge -
# - [r,Vnl] *is* included -
#
#   BSK|Identifier              :9866
#      |Dimension               :16
#      |Bands                   :7 - 10
#      |Exchange           [res]: yes
#      |Correlation        [res]: no
#      |Kernel`s coupling       : yes
#      |Exchange           [cpl]: yes
#      |Correlation        [cpl]: no
#      |W interaction is bare   : no
#      |ALDA kernel in R-space  : no
#      |RL vectors    [exchange]:3413
#      |E/h energy range    [ev]:-1.000000 - -1.000000
#      |Coupling range     [o/o]: 100.0000 -  100.0000
#
#  E/ev[1]    EPS-Im[2]  EPS-Re[3]  EPSo-Im[4] EPSo-Re[5]
#
  3.000000   0.161612   8.161349   0.185271   8.666162
  3.010000   0.162893   8.177532   0.186799   8.684713
  3.020000   0.164186   8.193844   0.188344   8.703415
  3.030000   0.165493   8.210285   0.189904   8.722275
  3.040000   0.166812   8.226856   0.191481   8.741287
  3.050000   0.168144   8.243561   0.193074   8.760460
  3.060000   0.169490   8.260397   0.194685   8.779791
  3.070000   0.170849   8.277369   0.196312   8.799282
  3.080000   0.172222   8.294476   0.197957   8.818937
  3.090000   0.173609   8.311720   0.199619   8.838757
  3.100000   0.175010   8.329103   0.201300   8.858742
  3.110000   0.176426   8.346628   0.202998   8.878895
  3.120000   0.177856   8.364293   0.204715   8.899219
  3.130000   0.179301   8.382101   0.206451   8.919714
  3.140000   0.180760   8.400054   0.208206   8.940382
  3.150000   0.182235   8.418152   0.209980   8.961226
  3.160000   0.183725   8.436399   0.211774   8.982249
  3.170000   0.185231   8.454795   0.213588   9.003448
  3.180000   0.186753   8.473339   0.215422   9.024831
  3.190000   0.188291   8.492039   0.217276   9.046397
  3.200000   0.189845   8.510891   0.219152   9.068147
  3.210000   0.191416   8.529898   0.221048   9.090086
  3.220000   0.193003   8.549063   0.222967   9.112214
  3.230000   0.194608   8.568384   0.224907   9.134534
  3.240000   0.196230   8.587868   0.226869   9.157047
  3.250000   0.197869   8.607515   0.228854   9.179757
  3.260000   0.199527   8.627325   0.230862   9.202665
  3.270000   0.201203   8.647299   0.232893   9.225775
  3.280000   0.202897   8.667442   0.234949   9.249085
  3.290000   0.204609   8.687755   0.237028   9.272603
  3.300000   0.206341   8.708239   0.239131   9.296329
  3.310000   0.208092   8.728895   0.241260   9.320265
  3.320000   0.209863   8.749727   0.243414   9.344414
  3.330000   0.211654   8.770737   0.245593   9.368776
  3.340000   0.213465   8.791924   0.247799   9.393358
  3.350000   0.215296   8.813292   0.250032   9.418158
  3.360000   0.217148   8.834845   0.252291   9.443184
  3.370000   0.219022   8.856581   0.254578   9.468436
  3.380000   0.220917   8.878505   0.256893   9.493914
  3.390000   0.222834   8.900620   0.259236   9.519623
  3.400000   0.224773   8.922926   0.261608   9.545569
  3.410000   0.226735   8.945425   0.264010   9.571750
  3.420000   0.228719   8.968121   0.266442   9.598171
  3.430000   0.230727   8.991014   0.268904   9.624836
  3.440000   0.232759   9.014107   0.271397   9.651746
  3.450000   0.234815   9.037405   0.273921   9.678906
  3.460000   0.236895   9.060909   0.276478   9.706318
  3.470000   0.239001   9.084619   0.279067   9.733983
  3.480000   0.241131   9.108541   0.281689   9.761909
  3.490000   0.243288   9.132674   0.284345   9.790097
  3.500000   0.245470   9.157025   0.287036   9.818549
  3.510000   0.247679   9.181593   0.289761   9.847271
  3.520000   0.249916   9.206383   0.292522   9.876266
  3.530000   0.252179   9.231395   0.295320   9.905535
  3.540000   0.254471   9.256632   0.298154   9.935085
  3.550000   0.256791   9.282098   0.301026   9.964916
  3.560000   0.259141   9.307798   0.303936   9.995034
   3.57000    0.26152    9.33373    0.30689   10.02544
   3.58000    0.26393    9.35990    0.30987   10.05615
   3.59000    0.26637    9.38631    0.31290   10.08715
   3.60000    0.26884    9.41297    0.31597   10.11845
   3.61000    0.27134    9.43987    0.31909   10.15007
   3.62000    0.27387    9.46703    0.32224   10.18199
   3.63000    0.27644    9.49443    0.32544   10.21422
   3.64000    0.27904    9.52209    0.32868   10.24678
   3.65000    0.28167    9.55001    0.33197   10.27966
   3.66000    0.28434    9.57820    0.33531   10.31287
   3.67000    0.28705    9.60665    0.33869   10.34641
   3.68000    0.28979    9.63537    0.34212   10.38029
   3.69000    0.29256    9.66436    0.34559   10.41451
   3.70000    0.29537    9.69363    0.34912   10.44907
   3.71000    0.29822    9.72319    0.35270   10.48399
   3.72000    0.30111    9.75303    0.35633   10.51927
   3.73000    0.30404    9.78315    0.36001   10.55491
   3.74000    0.30701    9.81357    0.36375   10.59091
   3.75000    0.31002    9.84428    0.36754   10.62729
   3.76000    0.31307    9.87530    0.37139   10.66405
   3.77000    0.31616    9.90662    0.37529   10.70119
   3.78000    0.31930    9.93824    0.37926   10.73872
   3.79000    0.32248    9.97018    0.38328   10.77665
   3.80000    0.32570   10.00244    0.38736   10.81497
   3.81000    0.32897   10.03502    0.39151   10.85371
   3.82000    0.33229   10.06793    0.39572   10.89285
   3.83000    0.33565   10.10117    0.39999   10.93242
   3.84000    0.33906   10.13474    0.40433   10.97241
   3.85000    0.34252   10.16865    0.40874   11.01284
   3.86000    0.34603   10.20291    0.41321   11.05370
   3.87000    0.34960   10.23752    0.41776   11.09501
   3.88000    0.35321   10.27248    0.42237   11.13678
   3.89000    0.35688   10.30781    0.42706   11.17900
   3.90000    0.36060   10.34350    0.43183   11.22169
   3.91000    0.36438   10.37956    0.43667   11.26485
   3.92000    0.36821   10.41600    0.44159   11.30850
   3.93000    0.37210   10.45282    0.44659   11.35264
   3.94000    0.37605   10.49002    0.45167   11.39728
   3.95000    0.38007   10.52763    0.45683   11.44242
   3.96000    0.38414   10.56563    0.46208   11.48808
   3.97000    0.38827   10.60404    0.46742   11.53426
   3.98000    0.39247   10.64286    0.47285   11.58097
   3.99000    0.39674   10.68210    0.47837   11.62822
   4.00000    0.40107   10.72176    0.48398   11.67602
   4.01000    0.40547   10.76186    0.48968   11.72438
   4.02000    0.40994   10.80239    0.49549   11.77330
   4.03000    0.41448   10.84337    0.50139   11.82281
   4.04000    0.41909   10.88480    0.50740   11.87290
   4.05000    0.42378   10.92669    0.51351   11.92359
   4.06000    0.42854   10.96905    0.51973   11.97488
   4.07000    0.43338   11.01189    0.52606   12.02680
   4.08000    0.43830   11.05520    0.53250   12.07935
   4.09000    0.44331   11.09901    0.53906   12.13253
   4.10000    0.44839   11.14331    0.54573   12.18637
   4.11000    0.45356   11.18812    0.55252   12.24087
   4.12000    0.45882   11.23344    0.55944   12.29605
   4.13000    0.46416   11.27929    0.56649   12.35192
   4.14000    0.46960   11.32567    0.57367   12.40848
   4.15000    0.47513   11.37259    0.58098   12.46576
   4.16000    0.48076   11.42006    0.58842   12.52376
   4.17000    0.48648   11.46809    0.59601   12.58251
   4.18000    0.49230   11.51670    0.60374   12.64200
   4.19000    0.49822   11.56587    0.61162   12.70227
   4.20000    0.50425   11.61564    0.61965   12.76332
   4.21000    0.51039   11.66601    0.62783   12.82516
   4.22000    0.51664   11.71699    0.63618   12.88782
   4.23000    0.52299   11.76859    0.64469   12.95131
   4.24000    0.52947   11.82083    0.65336   13.01564
   4.25000    0.53606   11.87370    0.66221   13.08083
   4.26000    0.54277   11.92723    0.67124   13.14690
   4.27000    0.54961   11.98143    0.68045   13.21386
   4.28000    0.55658   12.03630    0.68985   13.28174
   4.29000    0.56367   12.09187    0.69944   13.35054
   4.30000    0.57090   12.14814    0.70922   13.42030
   4.31000    0.57826   12.20514    0.71921   13.49103
   4.32000    0.58577   12.26286    0.72941   13.56275
   4.33000    0.59342   12.32133    0.73982   13.63548
   4.34000    0.60122   12.38055    0.75046   13.70923
   4.35000    0.60917   12.44056    0.76132   13.78404
   4.36000    0.61728   12.50135    0.77242   13.85993
   4.37000    0.62555   12.56294    0.78376   13.93692
   4.38000    0.63399   12.62536    0.79535   14.01502
   4.39000    0.64259   12.68861    0.80719   14.09428
   4.40000    0.65137   12.75271    0.81929   14.17470
   4.41000    0.66032   12.81769    0.83167   14.25632
   4.42000    0.66946   12.88355    0.84433   14.33916
   4.43000    0.67879   12.95032    0.85727   14.42326
   4.44000    0.68832   13.01801    0.87052   14.50863
   4.45000    0.69804   13.08665    0.88407   14.59531
   4.46000    0.70797   13.15625    0.89793   14.68333
   4.47000    0.71811   13.22683    0.91212   14.77272
   4.48000    0.72847   13.29841    0.92665   14.86350
   4.49000    0.73906   13.37103    0.94153   14.95572
   4.50000    0.74987   13.44468    0.95676   15.04940
   4.51000    0.76093   13.51941    0.97237   15.14459
   4.52000    0.77222   13.59523    0.98836   15.24131
   4.53000    0.78378   13.67216    1.00474   15.33961
   4.54000    0.79559   13.75024    1.02154   15.43952
   4.55000    0.80767   13.82949    1.03876   15.54108
   4.56000    0.82002   13.90992    1.05641   15.64433
   4.57000    0.83267   13.99158    1.07452   15.74933
   4.58000    0.84561   14.07449    1.09310   15.85610
   4.59000    0.85885   14.15867    1.11216   15.96469
   4.60000    0.87240   14.24416    1.13173   16.07516
   4.61000    0.88628   14.33098    1.15182   16.18754
   4.62000    0.90050   14.41917    1.17244   16.30190
   4.63000    0.91506   14.50877    1.19363   16.41827
   4.64000    0.92998   14.59979    1.21540   16.53673
   4.65000    0.94526   14.69229    1.23777   16.65731
   4.66000    0.96093   14.78629    1.26076   16.78008
   4.67000    0.97700   14.88183    1.28440   16.90510
   4.68000    0.99347   14.97895    1.30872   17.03243
   4.69000    1.01037   15.07768    1.33374   17.16214
   4.70000    1.02771   15.17808    1.35948   17.29429
   4.71000    1.04550   15.28018    1.38598   17.42895
   4.72000    1.06376   15.38403    1.41327   17.56620
   4.73000    1.08251   15.48966    1.44137   17.70610
   4.74000    1.10177   15.59714    1.47033   17.84873
   4.75000    1.12154   15.70650    1.50018   17.99419
   4.76000    1.14187   15.81779    1.53095   18.14254
   4.77000    1.16276   15.93108    1.56268   18.29388
   4.78000    1.18423   16.04640    1.59542   18.44830
   4.79000    1.20631   16.16383    1.62921   18.60589
   4.80000    1.22903   16.28341    1.66409   18.76676
   4.81000    1.25241   16.40522    1.70012   18.93100
   4.82000    1.27647   16.52930    1.73734   19.09872
   4.83000    1.30124   16.65572    1.77581   19.27004
   4.84000    1.32675   16.78456    1.81559   19.44506
   4.85000    1.35304   16.91588    1.85673   19.62392
   4.86000    1.38013   17.04975    1.89930   19.80673
   4.87000    1.40805   17.18625    1.94338   19.99364
   4.88000    1.43686   17.32547    1.98902   20.18477
   4.89000    1.46657   17.46748    2.03631   20.38027
   4.90000    1.49724   17.61237    2.08534   20.58032
   4.91000    1.52890   17.76022    2.13618   20.78504
   4.92000    1.56159   17.91113    2.18893   20.99460
   4.93000    1.59538   18.06521    2.24368   21.20920
   4.94000    1.63030   18.22254    2.30055   21.42900
   4.95000    1.66641   18.38323    2.35964   21.65420
   4.96000    1.70377   18.54740    2.42107   21.88499
   4.97000    1.74243   18.71515    2.48497   22.12160
   4.98000    1.78246   18.88662    2.55147   22.36424
   4.99000    1.82392   19.06192    2.62073   22.61314
   5.00000    1.86689   19.24119    2.69289   22.86855
   5.01000    1.91145   19.42456    2.76813   23.13072
   5.02000    1.95766   19.61219    2.84662   23.39993
   5.03000    2.00563   19.80421    2.92855   23.67646
   5.04000    2.05544   20.00080    3.01414   23.96062
   5.05000    2.10719   20.20210    3.10361   24.25271
   5.06000    2.16099   20.40831    3.19720   24.55307
   5.07000    2.21694   20.61960    3.29516   24.86206
   5.08000    2.27517   20.83616    3.39778   25.18005
   5.09000    2.33581   21.05820    3.50536   25.50743
   5.10000    2.39900   21.28593    3.61823   25.84462
   5.11000    2.46488   21.51958    3.73675   26.19206
   5.12000    2.53361   21.75936    3.86130   26.55021
   5.13000    2.60537   22.00555    3.99231   26.91958
   5.14000    2.68034   22.25840    4.13023   27.30068
   5.15000    2.75873   22.51818    4.27556   27.69407
   5.16000    2.84074   22.78519    4.42885   28.10033
   5.17000    2.92662   23.05974    4.59070   28.52012
   5.18000    3.01661   23.34214    4.76175   28.95406
   5.19000    3.11100   23.63274    4.94272   29.40287
   5.20000    3.21007   23.93190    5.13440   29.86730
   5.21000    3.31415   24.24001    5.33766   30.34814
   5.22000    3.42360   24.55748    5.55345   30.84625
   5.23000    3.53880   24.88474    5.78283   31.36251
   5.24000    3.66018   25.22223    6.02695   31.89789
   5.25000    3.78818   25.57046    6.28713   32.45339
   5.26000    3.92333   25.92994    6.56479   33.03012
   5.27000    4.06615   26.30119    6.86153   33.62917
   5.28000    4.21728   26.68481    7.17912   34.25178
   5.29000    4.37737   27.08141    7.51957   34.89922
   5.30000    4.54716   27.49163    7.88511   35.57285
   5.31000    4.72748   27.91618    8.27822   36.27408
   5.32000    4.91922   28.35579    8.70174   37.00441
   5.33000    5.12338   28.81122    9.15883   37.76541
   5.34000    5.34109   29.28332    9.65307   38.55869
   5.35000    5.57357   29.77295   10.18853   39.38593
   5.36000    5.82223   30.28103   10.76981   40.24882
   5.37000    6.08860   30.80855   11.40214   41.14908
   5.38000    6.37443   31.35653   12.09150   42.08839
   5.39000    6.68167   31.92603   12.84471   43.06835
   5.40000    7.01251   32.51820   13.66958   44.09044
   5.41000    7.36945   33.13419   14.57507   45.15588
   5.42000    7.75528   33.77522   15.57146   46.26551
   5.43000    8.17320   34.44252   16.67060   47.41967
   5.44000    8.62681   35.13732   17.88610   48.61790
   5.45000    9.12026   35.86086   19.23368   49.85863
   5.46000    9.65824   36.61431   20.73137   51.13880
   5.47000   10.24613   37.39876   22.39992   52.45323
   5.48000   10.89012   38.21513   24.26309   53.79389
   5.49000   11.59728   39.06411   26.34793   55.14888
   5.50000   12.37577   39.94600   28.68495   56.50106
   5.51000   13.23496   40.86063   31.30815   57.82633
   5.52000   14.18568   41.80708   34.25476   59.09143
   5.53000   15.24027   42.78328   37.56378   60.25098
   5.54000   16.41301   43.78591   41.27470   61.24425
   5.55000   17.72025   44.80961   45.42358   61.99125
   5.56000   19.18055   45.84641   50.03742   62.38868
   5.57000   20.81489   46.88482   55.12547   62.30675
   5.58000   22.64665   47.90856   60.66669   61.58813
   5.59000   24.70134   48.89514   66.59341   60.05185
   5.60000   27.00599   49.81384   72.77222   57.50538
   5.61000   29.58789   50.62353   78.98672   53.76859
   5.62000   32.47184   51.26976   84.92765   48.71283
   5.63000   35.67689   51.68234   90.20573   42.30913
   5.64000   39.21001   51.77287   94.39132   34.67719
   5.65000   43.05769   51.43406   97.08667   26.11168
   5.66000   47.17478   50.54223   98.01317   17.06567
   5.67000   51.47141   48.96540   97.08312    8.08319
   5.68000   55.80083   46.57962   94.42437   -0.30125
   5.69000   59.95313   43.29502   90.34541   -7.65962
   5.70000   63.66237   39.08943   85.25816  -13.72907
   5.71000   66.63393   34.04185   79.59160  -18.41953
   5.72000   68.59336   28.35129   73.72488  -21.78148
   5.73000   69.34624   22.32643   67.95242  -23.95612
   5.74000   68.82827   16.34034   62.47729  -25.12758
   5.75000   67.12318   10.76174   57.42227  -25.48711
   5.76000   64.44015    5.88800   52.84818  -25.21131
   5.77000   61.06130    1.90377   48.77280  -24.45189
   5.78000   57.28212   -1.12525   45.18654  -23.33293
   5.79000   53.36506   -3.23078   42.06433  -21.95245
   5.80000   49.51484   -4.50795   39.37382  -20.38592
   5.81000   45.87337   -5.08217   37.08073  -18.69032
   5.82000   42.52720   -5.08432   35.15206  -16.90799
   5.83000   39.51997   -4.63554   33.55805  -15.07001
   5.84000   36.86544   -3.83992   32.27309  -13.19896
   5.85000   34.55843   -2.78251   31.27622  -11.31131
   5.86000   32.58298   -1.53038   30.55122   -9.41916
   5.87000   30.91807   -0.13487   30.08665   -7.53179
   5.88000   29.54159    1.36534   29.87578   -5.65723
   5.89000   28.43220    2.94197   29.91641   -3.80298
   5.90000   27.57100    4.57459   30.21083   -1.97752
   5.91000   26.94217    6.24876   30.76571   -0.19137
   5.92000   26.53326    7.95443   31.59184    1.54142
   5.93000   26.33544    9.68475   32.70384    3.20182
   5.94000   26.34341   11.43498   34.11946    4.76377
   5.95000   26.55558   13.20167   35.85846    6.19203
   5.96000   26.97401   14.98198   37.94063    7.43948
   5.97000   27.60443   16.77263   40.38230    8.44419
   5.98000   28.45646   18.56963   43.19166    9.12703
   5.99000   29.54370   20.36712   46.36111    9.38980
   6.00000   30.88383   22.15651   49.85718    9.11604
   6.01000   32.49885   23.92523   53.60798    8.17616
   6.02000   34.41499   25.65524   57.48997    6.43981
   6.03000   36.66262   27.32104   61.31802    3.79749
   6.04000   39.27562   28.88731   64.84528    0.19155
   6.05000   42.29016   30.30585   67.78058   -4.34864
   6.06000   45.74230   31.51198   69.82819   -9.67885
   6.07000   49.66399   32.42063   70.74485  -15.53522
   6.08000   54.07664   32.92226   70.39805  -21.56390
   6.09000   58.98143   32.88002   68.80111  -27.38195
   6.10000   64.34573   32.12953   66.10922  -32.64915
   6.11000   70.08568   30.48433   62.57791  -37.12385
   6.12000   76.04688   27.75056   58.50341  -40.68578
   6.13000   81.98766   23.75462   54.16776  -43.32550
   6.14000   87.57393   18.38486   49.80345  -45.11406
   6.15000   92.39640   11.64263   45.58001  -46.16783
   6.16000   96.01945    3.68802   41.60640  -46.61915
   6.17000   98.05923   -5.14149   37.94213  -46.59664
   6.18000   98.27144  -14.35971   34.61047  -46.21440
   6.19000   96.61538  -23.40987   31.61053  -45.56790
   6.20000   93.26508  -31.76905   28.92676  -44.73381
   6.21000   88.56197  -39.03971   26.53582  -43.77195
   6.22000   82.93161  -44.99747   24.41107  -42.72790
   6.23000   76.79851  -49.58808   22.52538  -41.63580
   6.24000   70.52660  -52.88814   20.85307  -40.52093
   6.25000   64.38957  -55.05486   19.37029  -39.40154
   6.26000   58.57023  -56.27917   18.05579  -38.29072
   6.27000   53.17396  -56.75307   16.89083  -37.19770
   6.28000   48.24771  -56.65059   15.85916  -36.12885
   6.29000   43.79855  -56.11948   14.94683  -35.08853
   6.30000   39.80859  -55.27967   14.14200  -34.07963
   6.31000   36.24603  -54.22550   13.43470  -33.10418
   6.32000   33.07248  -53.02935   12.81663  -32.16363
   6.33000   30.24822  -51.74590   12.28104  -31.25938
   6.34000   27.73425  -50.41556   11.82236  -30.39284
   6.35000   25.49438  -49.06795   11.43606  -29.56595
   6.36000   23.49574  -47.72430   11.11838  -28.78131
   6.37000   21.70901  -46.39962   10.86594  -28.04258
   6.38000   20.10833  -45.10422   10.67528  -27.35463
   6.39000   18.67103  -43.84499   10.54219  -26.72375
   6.40000   17.37738  -42.62621   10.46088  -26.15756
   6.41000   16.21021  -41.45035   10.42301  -25.66462
   6.42000   15.15462  -40.31849   10.41660  -25.25349
   6.43000   14.19768  -39.23079   10.42535  -24.93102
   6.44000   13.32819  -38.18672   10.42863  -24.70004
   6.45000   12.53639  -37.18525   10.40293  -24.55675
   6.46000   11.81381  -36.22510   10.32486  -24.48871
   6.47000   11.15309  -35.30476   10.17552  -24.47470
   6.48000   10.54779  -34.42262    9.94469  -24.48718
   6.49000    9.99231  -33.57703    9.63323  -24.49692
   6.50000    9.48174  -32.76635    9.25249  -24.47832
   6.51000    9.01181  -31.98897    8.82105  -24.41343
   6.52000    8.57875  -31.24339    8.36024  -24.29340
   6.53000    8.17925  -30.52817    7.89010  -24.11750
   6.54000    7.81041  -29.84199    7.42691  -23.89083
   6.55000    7.46962  -29.18369    6.98229  -23.62168
   6.56000    7.15455  -28.55227    6.56348  -23.31941
   6.57000    6.86305  -27.94684    6.17413  -22.99303
   6.58000    6.59306  -27.36671    5.81534  -22.65049
   6.59000    6.34257  -26.81130    5.48649  -22.29833
   6.60000    6.10949  -26.28012    5.18596  -21.94175
   6.61000    5.89159  -25.77264    4.91164  -21.58473
   6.62000    5.68648  -25.28811    4.66114  -21.23017
   6.63000    5.49173  -24.82557    4.43219  -20.88027
   6.64000    5.30493  -24.38345    4.22254  -20.53652
   6.65000    5.12405  -23.95972    4.03015  -20.19991
   6.66000    4.94759  -23.55198    3.85316  -19.87110
   6.67000    4.77487  -23.15772    3.68993  -19.55045
   6.68000    4.60590  -22.77467    3.53900  -19.23816
   6.69000    4.44122  -22.40106    3.39906  -18.93426
   6.70000    4.28164  -22.03568    3.26900  -18.63867
   6.71000    4.12795  -21.67793    3.14781  -18.35126
   6.72000    3.98076  -21.32759    3.03463  -18.07183
   6.73000    3.84043  -20.98469    2.92867  -17.80017
   6.74000    3.70706  -20.64936    2.82927  -17.53603
   6.75000    3.58057  -20.32175    2.73582  -17.27916
   6.76000    3.46072  -20.00197    2.64781  -17.02930
   6.77000    3.34719  -19.69007    2.56475  -16.78620
   6.78000    3.23962  -19.38601    2.48624  -16.54960
   6.79000    3.13763  -19.08972    2.41191  -16.31927
   6.80000    3.04084  -18.80108    2.34142  -16.09495
   6.81000    2.94890  -18.51991    2.27448  -15.87642
   6.82000    2.86146  -18.24603    2.21081  -15.66345
   6.83000    2.77822  -17.97924    2.15019  -15.45583
   6.84000    2.69887  -17.71932    2.09240  -15.25336
   6.85000    2.62317  -17.46605    2.03723  -15.05585
   6.86000    2.55086  -17.21921    1.98452  -14.86310
   6.87000    2.48173  -16.97857    1.93409  -14.67494
   6.88000    2.41557  -16.74394    1.88581  -14.49120
   6.89000    2.35220  -16.51510    1.83953  -14.31172
   6.90000    2.29145  -16.29184    1.79514  -14.13635
   6.91000    2.23316  -16.07397    1.75252  -13.96494
   6.92000    2.17720  -15.86131    1.71157  -13.79734
   6.93000    2.12342  -15.65367    1.67219  -13.63344
   6.94000    2.07171  -15.45088    1.63429  -13.47310
   6.95000    2.02196  -15.25277    1.59780  -13.31620
   6.96000    1.97406  -15.05919    1.56263  -13.16262
   6.97000    1.92792  -14.86997    1.52872  -13.01226
   6.98000    1.88343  -14.68496    1.49600  -12.86500
   6.99000    1.84054  -14.50405    1.46441  -12.72076
   7.00000    1.79914  -14.32708    1.43389  -12.57943
   7.01000    1.75918  -14.15394    1.40440  -12.44093
   7.02000    1.72057  -13.98450    1.37588  -12.30516
   7.03000    1.68327  -13.81863    1.34828  -12.17204
   7.04000    1.64720  -13.65623    1.32157  -12.04149
   7.05000    1.61231  -13.49720    1.29570  -11.91344
   7.06000    1.57855  -13.34140    1.27064  -11.78780
   7.07000    1.54587  -13.18877    1.24634  -11.66451
   7.08000    1.51422  -13.03920    1.22278  -11.54351
   7.09000    1.48356  -12.89259    1.19992  -11.42472
   7.10000    1.45384  -12.74886    1.17774  -11.30807
   7.11000    1.42503  -12.60793    1.15620  -11.19352
   7.12000    1.39708  -12.46970    1.13529  -11.08101
   7.13000    1.36997  -12.33411    1.11496  -10.97047
   7.14000    1.34365  -12.20108    1.09521  -10.86186
   7.15000    1.31810  -12.07054    1.07600  -10.75512
   7.16000    1.29329  -11.94242    1.05732  -10.65021
   7.17000    1.26918  -11.81664    1.03915  -10.54706
   7.18000    1.24575  -11.69315    1.02146  -10.44565
   7.19000    1.22298  -11.57189    1.00424  -10.34592
   7.20000    1.20084  -11.45279    0.98748  -10.24784
   7.21000    1.17930  -11.33579    0.97115  -10.15135
   7.22000    1.15835  -11.22084    0.95523  -10.05642
   7.23000    1.13795  -11.10789    0.93972   -9.96302
   7.24000    1.11810  -10.99689    0.92460   -9.87110
   7.25000    1.09878  -10.88778    0.90986   -9.78062
   7.26000    1.07995  -10.78051    0.89548   -9.69156
   7.27000    1.06162  -10.67505    0.88145   -9.60388
   7.28000    1.04375  -10.57133    0.86776   -9.51754
   7.29000    1.02633  -10.46933    0.85440   -9.43252
   7.30000    1.00935  -10.36900    0.84135   -9.34878
   7.31000    0.99280  -10.27029    0.82861   -9.26630
   7.32000    0.97665  -10.17318    0.81617   -9.18505
   7.33000    0.96090  -10.07760    0.80401   -9.10498
  7.340001   0.945532  -9.983546   0.792132  -9.026098
  7.350001   0.930532  -9.890968   0.780522  -8.948359
  7.360001   0.915891  -9.799832   0.769173  -8.871738
  7.370001   0.901595  -9.710106   0.758076  -8.796214
  7.380001   0.887634  -9.621756   0.747223  -8.721762
  7.390001   0.873998  -9.534750   0.736608  -8.648359
  7.400001   0.860677  -9.449059   0.726224  -8.575980
  7.410000   0.847661  -9.364652   0.716062  -8.504606
  7.420001   0.834939  -9.281502   0.706118  -8.434217
  7.430000   0.822505  -9.199577   0.696384  -8.364792
  7.440001   0.810347  -9.118855   0.686854  -8.296308
  7.450000   0.798460  -9.039309   0.677522  -8.228747
  7.460001   0.786834  -8.960911   0.668384  -8.162092
  7.470000   0.775461  -8.883636   0.659433  -8.096324
  7.480000   0.764335  -8.807464   0.650664  -8.031422
  7.490000   0.753448  -8.732366   0.642072  -7.967373
  7.500000   0.742793  -8.658324   0.633652  -7.904159
  7.510000   0.732364  -8.585313   0.625399  -7.841761
  7.520000   0.722154  -8.513315   0.617310  -7.780167
  7.530000   0.712157  -8.442305   0.609379  -7.719358
  7.540000   0.702367  -8.372265   0.601603  -7.659322
  7.550000   0.692779  -8.303176   0.593976  -7.600041
  7.560000   0.683386  -8.235016   0.586496  -7.541501
  7.570000   0.674184  -8.167768   0.579158  -7.483692
  7.580000   0.665166  -8.101415   0.571959  -7.426598
  7.590000   0.656330  -8.035936   0.564895  -7.370203
  7.600000   0.647668  -7.971320   0.557963  -7.314497
  7.610000   0.639178  -7.907542   0.551160  -7.259467
  7.620000   0.630853  -7.844591   0.544481  -7.205101
  7.630000   0.622691  -7.782450   0.537925  -7.151385
  7.640000   0.614686  -7.721104   0.531487  -7.098310
  7.650000   0.606835  -7.660538   0.525166  -7.045863
  7.660000   0.599134  -7.600735   0.518957  -6.994032
  7.670000   0.591578  -7.541682   0.512860  -6.942807
  7.680001   0.584164  -7.483363   0.506869  -6.892175
  7.690001   0.576889  -7.425769   0.500985  -6.842131
  7.700001   0.569750  -7.368884   0.495203  -6.792664
  7.710001   0.562742  -7.312696   0.489521  -6.743760
  7.720001   0.555862  -7.257192   0.483938  -6.695412
  7.730000   0.549108  -7.202359   0.478449  -6.647610
  7.740001   0.542477  -7.148186   0.473055  -6.600345
  7.750000   0.535964  -7.094659   0.467752  -6.553608
  7.760001   0.529568  -7.041766   0.462538  -6.507390
  7.770000   0.523286  -6.989502   0.457411  -6.461682
  7.780001   0.517115  -6.937849   0.452369  -6.416475
  7.790000   0.511052  -6.886798   0.447411  -6.371764
  7.800001   0.505095  -6.836343   0.442534  -6.327536
  7.810000   0.499241  -6.786469   0.437737  -6.283787
  7.820001   0.493488  -6.737166   0.433017  -6.240508
  7.830000   0.487834  -6.688427   0.428374  -6.197691
  7.840001   0.482277  -6.640241   0.423805  -6.155330
  7.850000   0.476813  -6.592600   0.419309  -6.113416
  7.860000   0.471442  -6.545491   0.414885  -6.071943
  7.870000   0.466160  -6.498909   0.410530  -6.030904
  7.880000   0.460966  -6.452844   0.406244  -5.990292
  7.890000   0.455859  -6.407289   0.402024  -5.950101
  7.900000   0.450835  -6.362231   0.397870  -5.910323
  7.910000   0.445894  -6.317668   0.393780  -5.870954
  7.920000   0.441034  -6.273588   0.389753  -5.831985
  7.930000   0.436252  -6.229984   0.385787  -5.793414
  7.940000   0.431547  -6.186851   0.381882  -5.755229
  7.950000   0.426917  -6.144176   0.378035  -5.717430
  7.960000   0.422361  -6.101956   0.374247  -5.680007
  7.970000   0.417877  -6.060184   0.370515  -5.642957
  7.980000   0.413464  -6.018850   0.366838  -5.606274
  7.990000   0.409120  -5.977951   0.363216  -5.569951
  8.000000   0.404844  -5.937476   0.359647  -5.533985
# 
# 05/04/2016 at 18:38 YAMBO_RT @ narro [start]
# 05/04/2016 at 18:38                  [end]
#
# .-Input file : yambo.in
# | optics                       # [R OPT] Optics
# | bse                          # [R BSE] Bethe Salpeter Equation.
# | bsk                          # [R BSK] Bethe Salpeter Equation kernel
# | bss                          # [R BSS] Bethe Salpeter Equation solver
# | BoseTemp= 0.000000     eV    # Bosonic Temperature
# | FFTGvecs=  3317        RL    # [FFT] Plane-waves
# | BS_nCPU_invert= 1            # [PARALLEL] CPUs for matrix inversion
# | BS_nCPU_diago= 1             # [PARALLEL] CPUs for matrix diagonalization
# | BSEmod= "coupling"           # [BSE] resonant/causal/coupling
# | BSKmod= "Hartree"            # [BSE] IP/Hartree/HF/ALDA/SEX/BSfxc
# | BSSmod= "d"                  # [BSS] (h)aydock/(d)iagonalization/(i)nversion/(t)ddft`
# | BSENGexx=  3413        RL    # [BSK] Exchange components
# | Gauge= "length"              # [BSE] Gauge (length|velocity)
# | % BEnRange
# |  3.000000 | 8.000000 | eV    # [BSS] Energy range
# | %
# | % BDmRange
# |   0.10000 |  0.10000 | eV    # [BSS] Damping range
# | %
# | BEnSteps=  501               # [BSS] Energy steps
# | % BLongDir
# | 0.1000E-4 | 0.000    | 0.000    |        # [BSS] [cc] Electric Field
# | %
# | % BSEBands
# |   7 | 10 |                   # [BSK] Bands range
# | %
