#                                                           
# :::   :::   :::     ::::    ::::  :::::::::   ::::::::    
# :+:   :+: :+: :+:   +:+:+: :+:+:+ :+:    :+: :+:    :+:   
#  +:+ +:+ +:+   +:+  +:+ +:+:+ +:+ +:+    +:+ +:+    +:+   
#   +#++: +#++:++#++: +#+  +:+  +#+ +#++:++#+  +#+    +:+   
#    +#+  +#+     +#+ +#+       +#+ +#+    +#+ +#+    +#+   
#    #+#  #+#     #+# #+#       #+# #+#    #+# #+#    #+#   
#    ###  ###     ### ###       ### #########   ########    
#                                                           
#                                                           
#        Version 4.3.0 Revision 15341 Hash c146fb2          
#                      MPI+SLK Build                        
#                http://www.yambo-code.org                  
#
# Absorption @ Q(1) [q->0 direction] :0.1000E-4  0.000     0.000   
#
#
#
# - The Green`s function is Resonant -
# - Using the Length Gauge -
# - [r,Vnl] *is* included -
#
#
#    E/ev[1]      EPS-Im[2]    EPS-Re[3]
#
   -10.00       0.8290E-2     2.282   
   -9.990       0.8301E-2     2.283   
   -9.980       0.8312E-2     2.283   
   -9.970       0.8322E-2     2.284   
   -9.960       0.8333E-2     2.285   
   -9.950       0.8344E-2     2.286   
   -9.940       0.8355E-2     2.287   
   -9.930       0.8366E-2     2.288   
   -9.920       0.8377E-2     2.288   
   -9.910       0.8388E-2     2.289   
   -9.900       0.8398E-2     2.290   
   -9.890       0.8409E-2     2.291   
   -9.880       0.8420E-2     2.292   
   -9.870       0.8431E-2     2.293   
   -9.860       0.8442E-2     2.293   
   -9.850       0.8453E-2     2.294   
   -9.840       0.8464E-2     2.295   
   -9.830       0.8476E-2     2.296   
   -9.820       0.8487E-2     2.297   
   -9.810       0.8498E-2     2.298   
   -9.800       0.8509E-2     2.299   
   -9.790       0.8520E-2     2.299   
   -9.780       0.8531E-2     2.300   
   -9.770       0.8543E-2     2.301   
   -9.760       0.8554E-2     2.302   
   -9.750       0.8565E-2     2.303   
   -9.740       0.8576E-2     2.304   
   -9.730       0.8588E-2     2.305   
   -9.720       0.8599E-2     2.305   
   -9.710       0.8610E-2     2.306   
   -9.700       0.8622E-2     2.307   
   -9.690       0.8633E-2     2.308   
   -9.680       0.8644E-2     2.309   
   -9.670       0.8656E-2     2.310   
   -9.660       0.8667E-2     2.311   
   -9.650       0.8679E-2     2.311   
   -9.640       0.8690E-2     2.312   
   -9.630       0.8702E-2     2.313   
   -9.620       0.8713E-2     2.314   
   -9.610       0.8725E-2     2.315   
   -9.600       0.8737E-2     2.316   
   -9.590       0.8748E-2     2.317   
   -9.580       0.8760E-2     2.318   
   -9.570       0.8772E-2     2.318   
   -9.560       0.8783E-2     2.319   
   -9.550       0.8795E-2     2.320   
   -9.540       0.8807E-2     2.321   
   -9.530       0.8818E-2     2.322   
   -9.520       0.8830E-2     2.323   
   -9.510       0.8842E-2     2.324   
   -9.500       0.8854E-2     2.325   
   -9.490       0.8866E-2     2.325   
   -9.480       0.8878E-2     2.326   
   -9.470       0.8889E-2     2.327   
   -9.460       0.8901E-2     2.328   
   -9.450       0.8913E-2     2.329   
   -9.440       0.8925E-2     2.330   
   -9.430       0.8937E-2     2.331   
   -9.420       0.8949E-2     2.332   
   -9.410       0.8961E-2     2.333   
   -9.400       0.8974E-2     2.334   
   -9.390       0.8986E-2     2.334   
   -9.380       0.8998E-2     2.335   
   -9.370       0.9010E-2     2.336   
   -9.360       0.9022E-2     2.337   
   -9.350       0.9034E-2     2.338   
   -9.340       0.9046E-2     2.339   
   -9.330       0.9059E-2     2.340   
   -9.320       0.9071E-2     2.341   
   -9.310       0.9083E-2     2.342   
   -9.300       0.9096E-2     2.343   
   -9.290       0.9108E-2     2.343   
   -9.280       0.9120E-2     2.344   
   -9.270       0.9133E-2     2.345   
   -9.260       0.9145E-2     2.346   
   -9.250       0.9158E-2     2.347   
   -9.240       0.9170E-2     2.348   
   -9.230       0.9183E-2     2.349   
   -9.220       0.9195E-2     2.350   
   -9.210       0.9208E-2     2.351   
     -9.2000       0.0092       2.3517
     -9.1900       0.0092       2.3526
     -9.1800       0.0092       2.3535
     -9.1700       0.0093       2.3545
     -9.1600       0.0093       2.3554
     -9.1500       0.0093       2.3563
     -9.1400       0.0093       2.3573
     -9.1300       0.0093       2.3582
     -9.1200       0.0093       2.3591
     -9.1100       0.0093       2.3601
     -9.1000       0.0093       2.3610
     -9.0900       0.0094       2.3619
     -9.0800       0.0094       2.3629
     -9.0700       0.0094       2.3638
     -9.0600       0.0094       2.3647
     -9.0500       0.0094       2.3657
     -9.0400       0.0094       2.3666
     -9.0300       0.0094       2.3676
     -9.0200       0.0095       2.3685
     -9.0100       0.0095       2.3694
     -9.0000       0.0095       2.3704
     -8.9900       0.0095       2.3713
     -8.9800       0.0095       2.3723
     -8.9700       0.0095       2.3732
     -8.9600       0.0095       2.3742
     -8.9500       0.0095       2.3751
     -8.9400       0.0096       2.3761
     -8.9300       0.0096       2.3771
     -8.9200       0.0096       2.3780
     -8.9100       0.0096       2.3790
     -8.9000       0.0096       2.3799
     -8.8900       0.0096       2.3809
     -8.8800       0.0096       2.3819
     -8.8700       0.0097       2.3828
     -8.8600       0.0097       2.3838
     -8.8500       0.0097       2.3848
     -8.8400       0.0097       2.3857
     -8.8300       0.0097       2.3867
     -8.8200       0.0097       2.3877
     -8.8100       0.0097       2.3886
     -8.8000       0.0097       2.3896
     -8.7900       0.0098       2.3906
     -8.7800       0.0098       2.3916
     -8.7700       0.0098       2.3925
     -8.7600       0.0098       2.3935
     -8.7500       0.0098       2.3945
     -8.7400       0.0098       2.3955
     -8.7300       0.0098       2.3965
     -8.7200       0.0099       2.3975
     -8.7100       0.0099       2.3984
     -8.7000       0.0099       2.3994
     -8.6900       0.0099       2.4004
     -8.6800       0.0099       2.4014
     -8.6700       0.0099       2.4024
     -8.6600       0.0099       2.4034
     -8.6500       0.0100       2.4044
     -8.6400       0.0100       2.4054
     -8.6300       0.0100       2.4064
     -8.6200       0.0100       2.4074
    -8.61000      0.01001      2.40838
    -8.60000      0.01002      2.40938
    -8.59000      0.01004      2.41038
    -8.58000      0.01005      2.41139
    -8.57000      0.01007      2.41239
    -8.56000      0.01008      2.41340
    -8.55000      0.01010      2.41441
    -8.54000      0.01011      2.41542
    -8.53000      0.01013      2.41643
    -8.52000      0.01014      2.41744
    -8.51000      0.01015      2.41846
    -8.50000      0.01017      2.41948
    -8.49000      0.01018      2.42049
    -8.48000      0.01020      2.42151
    -8.47000      0.01021      2.42253
    -8.46000      0.01023      2.42355
    -8.45000      0.01024      2.42458
    -8.44000      0.01026      2.42560
    -8.43000      0.01027      2.42663
    -8.42000      0.01029      2.42766
    -8.41000      0.01030      2.42869
    -8.40000      0.01032      2.42972
    -8.39000      0.01033      2.43075
    -8.38000      0.01035      2.43178
    -8.37000      0.01036      2.43282
    -8.36000      0.01038      2.43385
    -8.35000      0.01039      2.43489
    -8.34000      0.01041      2.43593
    -8.33000      0.01042      2.43697
    -8.32000      0.01044      2.43802
    -8.31000      0.01045      2.43906
    -8.30000      0.01047      2.44011
    -8.29000      0.01048      2.44115
    -8.28000      0.01050      2.44220
    -8.27000      0.01051      2.44325
    -8.26000      0.01053      2.44430
    -8.25000      0.01054      2.44536
    -8.24000      0.01056      2.44641
    -8.23000      0.01057      2.44747
    -8.22000      0.01059      2.44853
    -8.21000      0.01061      2.44959
    -8.20000      0.01062      2.45065
    -8.19000      0.01064      2.45171
    -8.18000      0.01065      2.45278
    -8.17000      0.01067      2.45384
    -8.16000      0.01068      2.45491
    -8.15000      0.01070      2.45598
    -8.14000      0.01071      2.45705
    -8.13000      0.01073      2.45812
    -8.12000      0.01075      2.45919
    -8.11000      0.01076      2.46027
    -8.10000      0.01078      2.46135
    -8.09000      0.01079      2.46242
    -8.08000      0.01081      2.46350
    -8.07000      0.01083      2.46459
    -8.06000      0.01084      2.46567
    -8.05000      0.01086      2.46675
    -8.04000      0.01087      2.46784
    -8.03000      0.01089      2.46893
    -8.02000      0.01091      2.47002
    -8.01000      0.01092      2.47111
    -8.00000      0.01094      2.47220
    -7.99000      0.01096      2.47330
    -7.98000      0.01097      2.47439
    -7.97000      0.01099      2.47549
    -7.96000      0.01100      2.47659
    -7.95000      0.01102      2.47769
    -7.94000      0.01104      2.47880
    -7.93000      0.01105      2.47990
    -7.92000      0.01107      2.48101
    -7.91000      0.01109      2.48211
    -7.90000      0.01110      2.48322
    -7.89000      0.01112      2.48433
    -7.88000      0.01114      2.48545
    -7.87000      0.01115      2.48656
    -7.86000      0.01117      2.48768
    -7.85000      0.01119      2.48880
    -7.84000      0.01120      2.48991
    -7.83000      0.01122      2.49103
    -7.82000      0.01124      2.49216
    -7.81000      0.01125      2.49328
    -7.80000      0.01127      2.49441
    -7.79000      0.01129      2.49554
    -7.78000      0.01131      2.49667
    -7.77000      0.01132      2.49780
    -7.76000      0.01134      2.49893
    -7.75000      0.01136      2.50007
    -7.74000      0.01137      2.50120
    -7.73000      0.01139      2.50234
    -7.72000      0.01141      2.50348
    -7.71000      0.01143      2.50462
    -7.70000      0.01144      2.50576
    -7.69000      0.01146      2.50691
    -7.68000      0.01148      2.50806
    -7.67000      0.01150      2.50921
    -7.66000      0.01151      2.51036
    -7.65000      0.01153      2.51151
    -7.64000      0.01155      2.51266
    -7.63000      0.01157      2.51382
    -7.62000      0.01158      2.51498
    -7.61000      0.01160      2.51613
    -7.60000      0.01162      2.51730
    -7.59000      0.01164      2.51846
    -7.58000      0.01166      2.51962
    -7.57000      0.01167      2.52079
    -7.56000      0.01169      2.52196
    -7.55000      0.01171      2.52313
    -7.54000      0.01173      2.52430
    -7.53000      0.01175      2.52547
    -7.52000      0.01176      2.52665
    -7.51000      0.01178      2.52782
    -7.50000      0.01180      2.52900
    -7.49000      0.01182      2.53018
    -7.48000      0.01184      2.53137
    -7.47000      0.01186      2.53255
    -7.46000      0.01187      2.53374
    -7.45000      0.01189      2.53493
    -7.44000      0.01191      2.53612
    -7.43000      0.01193      2.53731
    -7.42000      0.01195      2.53850
    -7.41000      0.01197      2.53970
    -7.40000      0.01198      2.54089
    -7.39000      0.01200      2.54209
    -7.38000      0.01202      2.54329
    -7.37000      0.01204      2.54450
    -7.36000      0.01206      2.54570
    -7.35000      0.01208      2.54691
    -7.34000      0.01210      2.54812
    -7.33000      0.01212      2.54933
    -7.32000      0.01214      2.55054
    -7.31000      0.01215      2.55175
    -7.30000      0.01217      2.55297
    -7.29000      0.01219      2.55419
    -7.28000      0.01221      2.55541
    -7.27000      0.01223      2.55663
    -7.26000      0.01225      2.55786
    -7.25000      0.01227      2.55908
    -7.24000      0.01229      2.56031
    -7.23000      0.01231      2.56154
    -7.22000      0.01233      2.56277
    -7.21000      0.01235      2.56400
    -7.20000      0.01237      2.56524
    -7.19000      0.01239      2.56648
    -7.18000      0.01241      2.56772
    -7.17000      0.01243      2.56896
    -7.16000      0.01245      2.57020
    -7.15000      0.01247      2.57145
    -7.14000      0.01248      2.57269
    -7.13000      0.01250      2.57394
    -7.12000      0.01252      2.57519
    -7.11000      0.01254      2.57645
    -7.10000      0.01256      2.57770
    -7.09000      0.01258      2.57896
    -7.08000      0.01260      2.58022
    -7.07000      0.01262      2.58148
    -7.06000      0.01265      2.58274
    -7.05000      0.01267      2.58401
    -7.04000      0.01269      2.58528
    -7.03000      0.01271      2.58655
    -7.02000      0.01273      2.58782
    -7.01000      0.01275      2.58909
    -7.00000      0.01277      2.59037
    -6.99000      0.01279      2.59164
    -6.98000      0.01281      2.59292
    -6.97000      0.01283      2.59421
    -6.96000      0.01285      2.59549
    -6.95000      0.01287      2.59678
    -6.94000      0.01289      2.59806
    -6.93000      0.01291      2.59935
    -6.92000      0.01293      2.60065
    -6.91000      0.01295      2.60194
    -6.90000      0.01297      2.60324
    -6.89000      0.01300      2.60453
    -6.88000      0.01302      2.60583
    -6.87000      0.01304      2.60714
    -6.86000      0.01306      2.60844
    -6.85000      0.01308      2.60975
    -6.84000      0.01310      2.61106
    -6.83000      0.01312      2.61237
    -6.82000      0.01314      2.61368
    -6.81000      0.01317      2.61500
    -6.80000      0.01319      2.61632
    -6.79000      0.01321      2.61764
    -6.78000      0.01323      2.61896
    -6.77000      0.01325      2.62028
    -6.76000      0.01327      2.62161
    -6.75000      0.01330      2.62294
    -6.74000      0.01332      2.62427
    -6.73000      0.01334      2.62560
    -6.72000      0.01336      2.62693
    -6.71000      0.01338      2.62827
    -6.70000      0.01341      2.62961
    -6.69000      0.01343      2.63095
    -6.68000      0.01345      2.63229
    -6.67000      0.01347      2.63364
    -6.66000      0.01349      2.63499
    -6.65000      0.01352      2.63634
    -6.64000      0.01354      2.63769
    -6.63000      0.01356      2.63905
    -6.62000      0.01358      2.64040
    -6.61000      0.01361      2.64176
    -6.60000      0.01363      2.64313
    -6.59000      0.01365      2.64449
    -6.58000      0.01367      2.64585
    -6.57000      0.01370      2.64722
    -6.56000      0.01372      2.64859
    -6.55000      0.01374      2.64997
    -6.54000      0.01377      2.65134
    -6.53000      0.01379      2.65272
    -6.52000      0.01381      2.65410
    -6.51000      0.01384      2.65548
    -6.50000      0.01386      2.65687
    -6.49000      0.01388      2.65825
    -6.48000      0.01391      2.65964
    -6.47000      0.01393      2.66103
    -6.46000      0.01395      2.66243
    -6.45000      0.01398      2.66382
    -6.44000      0.01400      2.66522
    -6.43000      0.01402      2.66662
    -6.42000      0.01405      2.66803
    -6.41000      0.01407      2.66943
    -6.40000      0.01409      2.67084
    -6.39000      0.01412      2.67225
    -6.38000      0.01414      2.67366
    -6.37000      0.01417      2.67508
    -6.36000      0.01419      2.67650
    -6.35000      0.01421      2.67792
    -6.34000      0.01424      2.67934
    -6.33000      0.01426      2.68076
    -6.32000      0.01429      2.68219
    -6.31000      0.01431      2.68362
    -6.30000      0.01433      2.68505
    -6.29000      0.01436      2.68649
    -6.28000      0.01438      2.68792
    -6.27000      0.01441      2.68936
    -6.26000      0.01443      2.69080
    -6.25000      0.01446      2.69225
    -6.24000      0.01448      2.69370
    -6.23000      0.01451      2.69514
    -6.22000      0.01453      2.69660
    -6.21000      0.01456      2.69805
    -6.20000      0.01458      2.69951
    -6.19000      0.01461      2.70097
    -6.18000      0.01463      2.70243
    -6.17000      0.01466      2.70389
    -6.16000      0.01468      2.70536
    -6.15000      0.01471      2.70683
    -6.14000      0.01473      2.70830
    -6.13000      0.01476      2.70977
    -6.12000      0.01478      2.71125
    -6.11000      0.01481      2.71273
    -6.10000      0.01484      2.71421
    -6.09000      0.01486      2.71570
    -6.08000      0.01489      2.71718
    -6.07000      0.01491      2.71867
    -6.06000      0.01494      2.72017
    -6.05000      0.01496      2.72166
    -6.04000      0.01499      2.72316
    -6.03000      0.01502      2.72466
    -6.02000      0.01504      2.72616
    -6.01000      0.01507      2.72767
    -6.00000      0.01510      2.72918
    -5.99000      0.01512      2.73069
    -5.98000      0.01515      2.73220
    -5.97000      0.01518      2.73372
    -5.96000      0.01520      2.73523
    -5.95000      0.01523      2.73676
    -5.94000      0.01526      2.73828
    -5.93000      0.01528      2.73981
    -5.92000      0.01531      2.74134
    -5.91000      0.01534      2.74287
    -5.90000      0.01536      2.74440
    -5.89000      0.01539      2.74594
    -5.88000      0.01542      2.74748
    -5.87000      0.01544      2.74902
    -5.86000      0.01547      2.75057
    -5.85000      0.01550      2.75212
    -5.84000      0.01553      2.75367
    -5.83000      0.01555      2.75522
    -5.82000      0.01558      2.75678
    -5.81000      0.01561      2.75834
    -5.80000      0.01564      2.75990
    -5.79000      0.01567      2.76146
    -5.78000      0.01569      2.76303
    -5.77000      0.01572      2.76460
    -5.76000      0.01575      2.76618
    -5.75000      0.01578      2.76775
    -5.74000      0.01581      2.76933
    -5.73000      0.01583      2.77091
    -5.72000      0.01586      2.77250
    -5.71000      0.01589      2.77409
    -5.70000      0.01592      2.77568
    -5.69000      0.01595      2.77727
    -5.68000      0.01598      2.77886
    -5.67000      0.01601      2.78046
    -5.66000      0.01603      2.78206
    -5.65000      0.01606      2.78367
    -5.64000      0.01609      2.78528
    -5.63000      0.01612      2.78689
    -5.62000      0.01615      2.78850
    -5.61000      0.01618      2.79012
    -5.60000      0.01621      2.79174
    -5.59000      0.01624      2.79336
    -5.58000      0.01627      2.79498
    -5.57000      0.01630      2.79661
    -5.56000      0.01633      2.79824
    -5.55000      0.01636      2.79988
    -5.54000      0.01639      2.80151
    -5.53000      0.01642      2.80315
    -5.52000      0.01645      2.80480
    -5.51000      0.01648      2.80644
    -5.50000      0.01651      2.80809
    -5.49000      0.01654      2.80974
    -5.48000      0.01657      2.81140
    -5.47000      0.01660      2.81306
    -5.46000      0.01663      2.81472
    -5.45000      0.01666      2.81638
    -5.44000      0.01669      2.81805
    -5.43000      0.01672      2.81972
    -5.42000      0.01675      2.82139
    -5.41000      0.01678      2.82307
    -5.40000      0.01681      2.82475
    -5.39000      0.01684      2.82643
    -5.38000      0.01688      2.82812
    -5.37000      0.01691      2.82981
    -5.36000      0.01694      2.83150
    -5.35000      0.01697      2.83319
    -5.34000      0.01700      2.83489
    -5.33000      0.01703      2.83659
    -5.32000      0.01706      2.83830
    -5.31000      0.01710      2.84000
    -5.30000      0.01713      2.84171
    -5.29000      0.01716      2.84343
    -5.28000      0.01719      2.84515
    -5.27000      0.01722      2.84687
    -5.26000      0.01726      2.84859
    -5.25000      0.01729      2.85032
    -5.24000      0.01732      2.85205
    -5.23000      0.01735      2.85378
    -5.22000      0.01739      2.85552
    -5.21000      0.01742      2.85726
    -5.20000      0.01745      2.85900
    -5.19000      0.01748      2.86075
    -5.18000      0.01752      2.86250
    -5.17000      0.01755      2.86425
    -5.16000      0.01758      2.86601
    -5.15000      0.01762      2.86776
    -5.14000      0.01765      2.86953
    -5.13000      0.01768      2.87129
    -5.12000      0.01772      2.87306
    -5.11000      0.01775      2.87484
    -5.10000      0.01778      2.87661
    -5.09000      0.01782      2.87839
    -5.08000      0.01785      2.88018
    -5.07000      0.01789      2.88196
    -5.06000      0.01792      2.88375
    -5.05000      0.01795      2.88555
    -5.04000      0.01799      2.88734
    -5.03000      0.01802      2.88914
    -5.02000      0.01806      2.89095
    -5.01000      0.01809      2.89275
    -5.00000      0.01813      2.89456
    -4.99000      0.01816      2.89638
    -4.98000      0.01820      2.89820
    -4.97000      0.01823      2.90002
    -4.96000      0.01827      2.90184
    -4.95000      0.01830      2.90367
    -4.94000      0.01834      2.90550
    -4.93000      0.01837      2.90734
    -4.92000      0.01841      2.90917
    -4.91000      0.01844      2.91102
    -4.90000      0.01848      2.91286
    -4.89000      0.01851      2.91471
    -4.88000      0.01855      2.91656
    -4.87000      0.01859      2.91842
    -4.86000      0.01862      2.92028
    -4.85000      0.01866      2.92214
    -4.84000      0.01869      2.92401
    -4.83000      0.01873      2.92588
    -4.82000      0.01877      2.92776
    -4.81000      0.01880      2.92963
    -4.80000      0.01884      2.93152
    -4.79000      0.01888      2.93340
    -4.78000      0.01891      2.93529
    -4.77000      0.01895      2.93718
    -4.76000      0.01899      2.93908
    -4.75000      0.01903      2.94098
    -4.74000      0.01906      2.94289
    -4.73000      0.01910      2.94479
    -4.72000      0.01914      2.94670
    -4.71000      0.01918      2.94862
    -4.70000      0.01921      2.95054
    -4.69000      0.01925      2.95246
    -4.68000      0.01929      2.95439
    -4.67000      0.01933      2.95632
    -4.66000      0.01937      2.95825
    -4.65000      0.01941      2.96019
    -4.64000      0.01944      2.96213
    -4.63000      0.01948      2.96408
    -4.62000      0.01952      2.96603
    -4.61000      0.01956      2.96798
    -4.60000      0.01960      2.96994
    -4.59000      0.01964      2.97190
    -4.58000      0.01968      2.97387
    -4.57000      0.01972      2.97584
    -4.56000      0.01976      2.97781
    -4.55000      0.01980      2.97979
    -4.54000      0.01984      2.98177
    -4.53000      0.01988      2.98375
    -4.52000      0.01992      2.98574
    -4.51000      0.01996      2.98774
    -4.50000      0.02000      2.98973
    -4.49000      0.02004      2.99173
    -4.48000      0.02008      2.99374
    -4.47000      0.02012      2.99575
    -4.46000      0.02016      2.99776
    -4.45000      0.02020      2.99978
    -4.44000      0.02024      3.00180
    -4.43000      0.02028      3.00383
    -4.42000      0.02032      3.00586
    -4.41000      0.02036      3.00789
    -4.40000      0.02040      3.00993
    -4.39000      0.02045      3.01197
    -4.38000      0.02049      3.01402
    -4.37000      0.02053      3.01607
    -4.36000      0.02057      3.01812
    -4.35000      0.02061      3.02018
    -4.34000      0.02065      3.02224
    -4.33000      0.02070      3.02431
    -4.32000      0.02074      3.02638
    -4.31000      0.02078      3.02846
    -4.30000      0.02083      3.03054
    -4.29000      0.02087      3.03262
    -4.28000      0.02091      3.03471
    -4.27000      0.02095      3.03680
    -4.26000      0.02100      3.03890
    -4.25000      0.02104      3.04100
    -4.24000      0.02108      3.04311
    -4.23000      0.02113      3.04522
    -4.22000      0.02117      3.04733
    -4.21000      0.02122      3.04945
    -4.20000      0.02126      3.05157
    -4.19000      0.02130      3.05370
    -4.18000      0.02135      3.05583
    -4.17000      0.02139      3.05797
    -4.16000      0.02144      3.06011
    -4.15000      0.02148      3.06226
    -4.14000      0.02153      3.06441
    -4.13000      0.02157      3.06656
    -4.12000      0.02162      3.06872
    -4.11000      0.02166      3.07088
    -4.10000      0.02171      3.07305
    -4.09000      0.02175      3.07522
    -4.08000      0.02180      3.07740
    -4.07000      0.02184      3.07958
    -4.06000      0.02189      3.08177
    -4.05000      0.02194      3.08396
    -4.04000      0.02198      3.08616
    -4.03000      0.02203      3.08836
    -4.02000      0.02208      3.09056
    -4.01000      0.02212      3.09277
    -4.00000      0.02217      3.09498
    -3.99000      0.02222      3.09720
    -3.98000      0.02226      3.09943
    -3.97000      0.02231      3.10165
    -3.96000      0.02236      3.10389
    -3.95000      0.02241      3.10613
    -3.94000      0.02245      3.10837
    -3.93000      0.02250      3.11062
    -3.92000      0.02255      3.11287
    -3.91000      0.02260      3.11512
    -3.90000      0.02265      3.11739
    -3.89000      0.02270      3.11965
    -3.88000      0.02274      3.12192
    -3.87000      0.02279      3.12420
    -3.86000      0.02284      3.12648
    -3.85000      0.02289      3.12877
    -3.84000      0.02294      3.13106
    -3.83000      0.02299      3.13336
    -3.82000      0.02304      3.13566
    -3.81000      0.02309      3.13796
    -3.80000      0.02314      3.14027
    -3.79000      0.02319      3.14259
    -3.78000      0.02324      3.14491
    -3.77000      0.02329      3.14724
    -3.76000      0.02334      3.14957
    -3.75000      0.02339      3.15190
    -3.74000      0.02344      3.15424
    -3.73000      0.02350      3.15659
    -3.72000      0.02355      3.15894
    -3.71000      0.02360      3.16130
    -3.70000      0.02365      3.16366
    -3.69000      0.02370      3.16603
    -3.68000      0.02375      3.16840
    -3.67000      0.02381      3.17078
    -3.66000      0.02386      3.17316
    -3.65000      0.02391      3.17555
    -3.64000      0.02396      3.17794
    -3.63000      0.02402      3.18034
    -3.62000      0.02407      3.18274
    -3.61000      0.02412      3.18515
    -3.60000      0.02418      3.18757
    -3.59000      0.02423      3.18999
    -3.58000      0.02428      3.19241
    -3.57000      0.02434      3.19484
    -3.56000      0.02439      3.19728
    -3.55000      0.02445      3.19972
    -3.54000      0.02450      3.20217
    -3.53000      0.02456      3.20462
    -3.52000      0.02461      3.20708
    -3.51000      0.02466      3.20954
    -3.50000      0.02472      3.21201
    -3.49000      0.02478      3.21448
    -3.48000      0.02483      3.21696
    -3.47000      0.02489      3.21945
    -3.46000      0.02494      3.22194
    -3.45000      0.02500      3.22443
    -3.44000      0.02506      3.22694
    -3.43000      0.02511      3.22944
    -3.42000      0.02517      3.23196
    -3.41000      0.02523      3.23448
    -3.40000      0.02528      3.23700
    -3.39000      0.02534      3.23953
    -3.38000      0.02540      3.24207
    -3.37000      0.02546      3.24461
    -3.36000      0.02551      3.24716
    -3.35000      0.02557      3.24971
    -3.34000      0.02563      3.25227
    -3.33000      0.02569      3.25484
    -3.32000      0.02575      3.25741
    -3.31000      0.02581      3.25998
    -3.30000      0.02587      3.26257
    -3.29000      0.02592      3.26516
    -3.28000      0.02598      3.26775
    -3.27000      0.02604      3.27035
    -3.26000      0.02610      3.27296
    -3.25000      0.02616      3.27557
    -3.24000      0.02622      3.27819
    -3.23000      0.02628      3.28081
    -3.22000      0.02635      3.28345
    -3.21000      0.02641      3.28608
    -3.20000      0.02647      3.28873
    -3.19000      0.02653      3.29137
    -3.18000      0.02659      3.29403
    -3.17000      0.02665      3.29669
    -3.16000      0.02671      3.29936
    -3.15000      0.02678      3.30203
    -3.14000      0.02684      3.30471
    -3.13000      0.02690      3.30740
    -3.12000      0.02697      3.31009
    -3.11000      0.02703      3.31279
    -3.10000      0.02709      3.31550
    -3.09000      0.02716      3.31821
    -3.08000      0.02722      3.32093
    -3.07000      0.02728      3.32365
    -3.06000      0.02735      3.32638
    -3.05000      0.02741      3.32912
    -3.04000      0.02748      3.33186
    -3.03000      0.02754      3.33461
    -3.02000      0.02761      3.33737
    -3.01000      0.02767      3.34013
    -3.00000      0.02774      3.34290
    -2.99000      0.02780      3.34568
    -2.98000      0.02787      3.34846
    -2.97000      0.02794      3.35125
    -2.96000      0.02800      3.35405
    -2.95000      0.02807      3.35685
    -2.94000      0.02814      3.35966
    -2.93000      0.02820      3.36247
    -2.92000      0.02827      3.36530
    -2.91000      0.02834      3.36813
    -2.90000      0.02841      3.37096
    -2.89000      0.02848      3.37381
    -2.88000      0.02854      3.37666
    -2.87000      0.02861      3.37951
    -2.86000      0.02868      3.38238
    -2.85000      0.02875      3.38525
    -2.84000      0.02882      3.38813
    -2.83000      0.02889      3.39101
    -2.82000      0.02896      3.39390
    -2.81000      0.02903      3.39680
    -2.80000      0.02910      3.39971
    -2.79000      0.02917      3.40262
    -2.78000      0.02924      3.40554
    -2.77000      0.02932      3.40847
    -2.76000      0.02939      3.41140
    -2.75000      0.02946      3.41434
    -2.74000      0.02953      3.41729
    -2.73000      0.02960      3.42025
    -2.72000      0.02968      3.42321
    -2.71000      0.02975      3.42618
    -2.70000      0.02982      3.42916
    -2.69000      0.02990      3.43214
    -2.68000      0.02997      3.43514
    -2.67000      0.03004      3.43814
    -2.66000      0.03012      3.44114
    -2.65000      0.03019      3.44416
    -2.64000      0.03027      3.44718
    -2.63000      0.03034      3.45021
    -2.62000      0.03042      3.45325
    -2.61000      0.03049      3.45629
    -2.60000      0.03057      3.45934
    -2.59000      0.03065      3.46240
    -2.58000      0.03072      3.46547
    -2.57000      0.03080      3.46854
    -2.56000      0.03088      3.47163
    -2.55000      0.03095      3.47472
    -2.54000      0.03103      3.47782
    -2.53000      0.03111      3.48092
    -2.52000      0.03119      3.48404
    -2.51000      0.03127      3.48716
    -2.50000      0.03134      3.49029
    -2.49000      0.03142      3.49342
    -2.48000      0.03150      3.49657
    -2.47000      0.03158      3.49972
    -2.46000      0.03166      3.50288
    -2.45000      0.03174      3.50605
    -2.44000      0.03182      3.50923
    -2.43000      0.03191      3.51242
    -2.42000      0.03199      3.51561
    -2.41000      0.03207      3.51881
    -2.40000      0.03215      3.52202
    -2.39000      0.03223      3.52524
    -2.38000      0.03232      3.52847
    -2.37000      0.03240      3.53170
    -2.36000      0.03248      3.53494
    -2.35000      0.03256      3.53820
    -2.34000      0.03265      3.54145
    -2.33000      0.03273      3.54472
    -2.32000      0.03282      3.54800
    -2.31000      0.03290      3.55128
    -2.30000      0.03299      3.55458
    -2.29000      0.03307      3.55788
    -2.28000      0.03316      3.56119
    -2.27000      0.03324      3.56451
    -2.26000      0.03333      3.56784
    -2.25000      0.03342      3.57117
    -2.24000      0.03351      3.57452
    -2.23000      0.03359      3.57787
    -2.22000      0.03368      3.58123
    -2.21000      0.03377      3.58460
    -2.20000      0.03386      3.58799
    -2.19000      0.03395      3.59137
    -2.18000      0.03404      3.59477
    -2.17000      0.03413      3.59818
    -2.16000      0.03422      3.60160
    -2.15000      0.03431      3.60502
    -2.14000      0.03440      3.60845
    -2.13000      0.03449      3.61190
    -2.12000      0.03458      3.61535
    -2.11000      0.03467      3.61881
    -2.10000      0.03476      3.62228
    -2.09000      0.03486      3.62576
    -2.08000      0.03495      3.62925
    -2.07000      0.03504      3.63275
    -2.06000      0.03514      3.63625
    -2.05000      0.03523      3.63977
    -2.04000      0.03532      3.64330
    -2.03000      0.03542      3.64683
    -2.02000      0.03551      3.65038
    -2.01000      0.03561      3.65393
    -2.00000      0.03570      3.65750
    -1.99000      0.03580      3.66107
    -1.98000      0.03590      3.66466
    -1.97000      0.03599      3.66825
    -1.96000      0.03609      3.67185
    -1.95000      0.03619      3.67547
    -1.94000      0.03629      3.67909
    -1.93000      0.03639      3.68272
    -1.92000      0.03649      3.68636
    -1.91000      0.03659      3.69001
    -1.90000      0.03669      3.69368
    -1.89000      0.03679      3.69735
    -1.88000      0.03689      3.70103
    -1.87000      0.03699      3.70472
    -1.86000      0.03709      3.70843
    -1.85000      0.03719      3.71214
    -1.84000      0.03729      3.71586
    -1.83000      0.03740      3.71959
    -1.82000      0.03750      3.72334
    -1.81000      0.03760      3.72709
    -1.80000      0.03771      3.73086
    -1.79000      0.03781      3.73463
    -1.78000      0.03792      3.73842
    -1.77000      0.03802      3.74221
    -1.76000      0.03813      3.74602
    -1.75000      0.03823      3.74983
    -1.74000      0.03834      3.75366
    -1.73000      0.03845      3.75750
    -1.72000      0.03856      3.76135
    -1.71000      0.03866      3.76521
    -1.70000      0.03877      3.76908
    -1.69000      0.03888      3.77296
    -1.68000      0.03899      3.77685
    -1.67000      0.03910      3.78076
    -1.66000      0.03921      3.78467
    -1.65000      0.03932      3.78859
    -1.64000      0.03943      3.79253
    -1.63000      0.03955      3.79648
    -1.62000      0.03966      3.80044
    -1.61000      0.03977      3.80441
    -1.60000      0.03988      3.80839
    -1.59000      0.04000      3.81238
    -1.58000      0.04011      3.81638
    -1.57000      0.04023      3.82040
    -1.56000      0.04034      3.82443
    -1.55000      0.04046      3.82846
    -1.54000      0.04057      3.83251
    -1.53000      0.04069      3.83658
    -1.52000      0.04081      3.84065
    -1.51000      0.04093      3.84473
    -1.50000      0.04104      3.84883
    -1.49000      0.04116      3.85294
    -1.48000      0.04128      3.85706
    -1.47000      0.04140      3.86119
    -1.46000      0.04152      3.86534
    -1.45000      0.04164      3.86949
    -1.44000      0.04176      3.87366
    -1.43000      0.04189      3.87784
    -1.42000      0.04201      3.88204
    -1.41000      0.04213      3.88624
    -1.40000      0.04226      3.89046
    -1.39000      0.04238      3.89469
    -1.38000      0.04250      3.89893
    -1.37000      0.04263      3.90319
    -1.36000      0.04275      3.90745
    -1.35000      0.04288      3.91173
    -1.34000      0.04301      3.91603
    -1.33000      0.04314      3.92033
    -1.32000      0.04326      3.92465
    -1.31000      0.04339      3.92898
    -1.30000      0.04352      3.93332
    -1.29000      0.04365      3.93768
    -1.28000      0.04378      3.94205
    -1.27000      0.04391      3.94643
    -1.26000      0.04404      3.95083
    -1.25000      0.04418      3.95524
    -1.24000      0.04431      3.95966
    -1.23000      0.04444      3.96409
    -1.22000      0.04458      3.96854
    -1.21000      0.04471      3.97301
    -1.20000      0.04484      3.97748
    -1.19000      0.04498      3.98197
    -1.18000      0.04512      3.98647
    -1.17000      0.04525      3.99099
    -1.16000      0.04539      3.99552
    -1.15000      0.04553      4.00006
    -1.14000      0.04567      4.00462
    -1.13000      0.04581      4.00919
    -1.12000      0.04595      4.01378
    -1.11000      0.04609      4.01838
    -1.10000      0.04623      4.02299
    -1.09000      0.04637      4.02762
    -1.08000      0.04651      4.03226
    -1.07000      0.04666      4.03692
    -1.06000      0.04680      4.04159
    -1.05000      0.04695      4.04627
    -1.04000      0.04709      4.05097
    -1.03000      0.04724      4.05569
    -1.02000      0.04738      4.06042
    -1.01000      0.04753      4.06516
    -1.00000      0.04768      4.06992
    -0.99000      0.04783      4.07469
    -0.98000      0.04798      4.07948
    -0.97000      0.04813      4.08428
    -0.96000      0.04828      4.08910
    -0.95000      0.04843      4.09393
    -0.94000      0.04858      4.09878
    -0.93000      0.04874      4.10365
    -0.92000      0.04889      4.10852
    -0.91000      0.04904      4.11342
    -0.90000      0.04920      4.11833
    -0.89000      0.04936      4.12325
    -0.88000      0.04951      4.12819
    -0.87000      0.04967      4.13315
    -0.86000      0.04983      4.13812
    -0.85000      0.04999      4.14311
    -0.84000      0.05015      4.14812
    -0.83000      0.05031      4.15314
    -0.82000      0.05047      4.15817
    -0.81000      0.05063      4.16322
    -0.80000      0.05079      4.16829
    -0.79000      0.05096      4.17338
    -0.78000      0.05112      4.17848
    -0.77000      0.05129      4.18360
    -0.76000      0.05145      4.18873
    -0.75000      0.05162      4.19388
    -0.74000      0.05179      4.19905
    -0.73000      0.05196      4.20423
    -0.72000      0.05212      4.20944
    -0.71000      0.05229      4.21465
    -0.70000      0.05247      4.21989
    -0.69000      0.05264      4.22514
    -0.68000      0.05281      4.23041
    -0.67000      0.05298      4.23570
    -0.66000      0.05316      4.24100
    -0.65000      0.05333      4.24632
    -0.64000      0.05351      4.25166
    -0.63000      0.05369      4.25702
    -0.62000      0.05386      4.26239
    -0.61000      0.05404      4.26779
    -0.60000      0.05422      4.27320
    -0.59000      0.05440      4.27862
    -0.58000      0.05458      4.28407
    -0.57000      0.05477      4.28954
    -0.56000      0.05495      4.29502
    -0.55000      0.05513      4.30052
    -0.54000      0.05532      4.30604
    -0.53000      0.05551      4.31158
    -0.52000      0.05569      4.31713
    -0.51000      0.05588      4.32271
    -0.50000      0.05607      4.32830
    -0.49000      0.05626      4.33392
    -0.48000      0.05645      4.33955
    -0.47000      0.05664      4.34520
    -0.46000      0.05683      4.35087
    -0.45000      0.05703      4.35656
    -0.44000      0.05722      4.36227
    -0.43000      0.05742      4.36800
    -0.42000      0.05762      4.37375
    -0.41000      0.05781      4.37951
    -0.40000      0.05801      4.38530
    -0.39000      0.05821      4.39111
    -0.38000      0.05841      4.39694
    -0.37000      0.05861      4.40278
    -0.36000      0.05882      4.40865
    -0.35000      0.05902      4.41454
    -0.34000      0.05923      4.42045
    -0.33000      0.05943      4.42638
    -0.32000      0.05964      4.43233
    -0.31000      0.05985      4.43830
    -0.30000      0.06006      4.44429
    -0.29000      0.06027      4.45030
    -0.28000      0.06048      4.45634
    -0.27000      0.06069      4.46239
    -0.26000      0.06091      4.46847
    -0.25000      0.06112      4.47457
    -0.24000      0.06134      4.48069
    -0.23000      0.06155      4.48683
    -0.22000      0.06177      4.49299
    -0.21000      0.06199      4.49917
    -0.20000      0.06221      4.50538
    -0.19000      0.06244      4.51161
    -0.18000      0.06266      4.51786
    -0.17000      0.06288      4.52413
    -0.16000      0.06311      4.53043
    -0.15000      0.06334      4.53675
    -0.14000      0.06356      4.54309
    -0.13000      0.06379      4.54945
    -0.12000      0.06402      4.55584
    -0.11000      0.06426      4.56225
    -0.10000      0.06449      4.56868
    -0.09000      0.06472      4.57514
    -0.08000      0.06496      4.58162
    -0.07000      0.06519      4.58812
    -0.06000      0.06543      4.59465
    -0.05000      0.06567      4.60120
    -0.04000      0.06591      4.60777
    -0.03000      0.06616      4.61437
    -0.02000      0.06640      4.62099
     -0.0100       0.0666       4.6276
     0.00000      0.06689      4.63431
      0.0100       0.0671       4.6410
     0.02000      0.06739      4.64773
     0.03000      0.06764      4.65448
     0.04000      0.06789      4.66125
     0.05000      0.06814      4.66805
     0.06000      0.06840      4.67487
     0.07000      0.06865      4.68172
     0.08000      0.06891      4.68859
     0.09000      0.06917      4.69549
     0.10000      0.06943      4.70241
     0.11000      0.06969      4.70936
     0.12000      0.06995      4.71634
     0.13000      0.07022      4.72335
     0.14000      0.07049      4.73038
     0.15000      0.07075      4.73743
     0.16000      0.07102      4.74452
     0.17000      0.07129      4.75163
     0.18000      0.07157      4.75876
     0.19000      0.07184      4.76593
     0.20000      0.07212      4.77312
     0.21000      0.07239      4.78034
     0.22000      0.07267      4.78759
     0.23000      0.07295      4.79487
     0.24000      0.07323      4.80217
     0.25000      0.07352      4.80950
     0.26000      0.07380      4.81686
     0.27000      0.07409      4.82425
     0.28000      0.07438      4.83167
     0.29000      0.07467      4.83912
     0.30000      0.07496      4.84659
     0.31000      0.07526      4.85410
     0.32000      0.07555      4.86163
     0.33000      0.07585      4.86919
     0.34000      0.07615      4.87679
     0.35000      0.07645      4.88441
     0.36000      0.07675      4.89207
     0.37000      0.07706      4.89975
     0.38000      0.07736      4.90747
     0.39000      0.07767      4.91521
     0.40000      0.07798      4.92299
     0.41000      0.07829      4.93079
     0.42000      0.07861      4.93863
     0.43000      0.07892      4.94650
     0.44000      0.07924      4.95440
     0.45000      0.07956      4.96234
     0.46000      0.07988      4.97030
     0.47000      0.08020      4.97830
     0.48000      0.08053      4.98633
     0.49000      0.08086      4.99439
     0.50000      0.08118      5.00249
     0.51000      0.08152      5.01062
     0.52000      0.08185      5.01878
     0.53000      0.08219      5.02697
     0.54000      0.08252      5.03520
     0.55000      0.08286      5.04346
     0.56000      0.08320      5.05176
     0.57000      0.08355      5.06009
     0.58000      0.08389      5.06846
     0.59000      0.08424      5.07686
     0.60000      0.08459      5.08529
     0.61000      0.08494      5.09376
     0.62000      0.08530      5.10226
     0.63000      0.08566      5.11080
     0.64000      0.08602      5.11938
     0.65000      0.08638      5.12799
     0.66000      0.08674      5.13664
     0.67000      0.08711      5.14532
     0.68000      0.08747      5.15405
     0.69000      0.08785      5.16280
     0.70000      0.08822      5.17160
     0.71000      0.08859      5.18043
     0.72000      0.08897      5.18930
     0.73000      0.08935      5.19821
     0.74000      0.08974      5.20716
     0.75000      0.09012      5.21614
     0.76000      0.09051      5.22516
     0.77000      0.09090      5.23423
     0.78000      0.09129      5.24333
     0.79000      0.09169      5.25247
     0.80000      0.09208      5.26165
     0.81000      0.09249      5.27087
     0.82000      0.09289      5.28013
     0.83000      0.09329      5.28943
     0.84000      0.09370      5.29877
     0.85000      0.09411      5.30815
     0.86000      0.09453      5.31757
     0.87000      0.09494      5.32704
     0.88000      0.09536      5.33654
     0.89000      0.09579      5.34609
     0.90000      0.09621      5.35568
     0.91000      0.09664      5.36531
     0.92000      0.09707      5.37499
     0.93000      0.09750      5.38471
     0.94000      0.09794      5.39447
     0.95000      0.09838      5.40428
     0.96000      0.09882      5.41413
     0.97000      0.09927      5.42402
     0.98000      0.09972      5.43396
    0.990000     0.100167     5.443944
    1.000000     0.100621     5.453974
    1.010000     0.101079     5.464048
    1.020000     0.101540     5.474168
    1.030000     0.102004     5.484335
    1.040000     0.102471     5.494549
    1.050000     0.102942     5.504808
    1.060000     0.103415     5.515115
    1.070000     0.103892     5.525469
    1.080000     0.104373     5.535872
    1.090000     0.104856     5.546322
    1.100000     0.105343     5.556819
    1.110000     0.105834     5.567367
    1.120000     0.106328     5.577964
    1.130000     0.106825     5.588609
    1.140000     0.107326     5.599305
    1.150000     0.107830     5.610052
    1.160001     0.108338     5.620848
    1.170001     0.108850     5.631695
    1.180001     0.109365     5.642594
    1.190001     0.109884     5.653545
    1.200001     0.110407     5.664547
    1.210001     0.110933     5.675601
    1.220001     0.111463     5.686707
    1.230000     0.111997     5.697868
    1.240000     0.112535     5.709082
    1.250000     0.113077     5.720349
    1.260000     0.113623     5.731671
    1.270000     0.114172     5.743047
    1.280000     0.114726     5.754478
    1.290000     0.115284     5.765964
    1.300000     0.115845     5.777509
    1.310000     0.116411     5.789107
    1.320000     0.116981     5.800763
    1.330000     0.117556     5.812475
    1.340000     0.118134     5.824246
    1.350000     0.118717     5.836074
    1.360000     0.119304     5.847961
    1.370000     0.119896     5.859906
    1.380000     0.120492     5.871911
    1.390000     0.121092     5.883975
    1.400000     0.121697     5.896098
    1.410000     0.122307     5.908285
    1.420000     0.122921     5.920529
    1.430000     0.123540     5.932837
    1.440000     0.124163     5.945206
    1.450000     0.124791     5.957638
    1.460000     0.125424     5.970132
    1.470000     0.126062     5.982690
    1.480000     0.126705     5.995313
    1.490000     0.127353     6.007999
    1.500000     0.128006     6.020750
    1.510000     0.128663     6.033566
    1.520001     0.129326     6.046450
    1.530001     0.129994     6.059398
    1.540001     0.130667     6.072413
    1.550001     0.131346     6.085496
    1.560001     0.132030     6.098647
    1.570001     0.132719     6.111866
    1.580001     0.133413     6.125154
    1.590001     0.134113     6.138513
    1.600001     0.134819     6.151940
    1.610000     0.135530     6.165440
    1.620000     0.136247     6.179011
    1.630000     0.136970     6.192652
    1.640000     0.137698     6.206366
    1.650000     0.138432     6.220153
    1.660000     0.139172     6.234013
    1.670000     0.139919     6.247947
    1.680000     0.140671     6.261956
    1.690000     0.141429     6.276041
    1.700000     0.142193     6.290200
    1.710000     0.142964     6.304437
    1.720000     0.143741     6.318752
    1.730000     0.144524     6.333144
    1.740000     0.145314     6.347613
    1.750000     0.146110     6.362162
    1.760000     0.146913     6.376792
    1.770000     0.147723     6.391501
    1.780000     0.148539     6.406291
    1.790000     0.149362     6.421163
    1.800000     0.150192     6.436118
    1.810000     0.151029     6.451155
    1.820000     0.151873     6.466277
    1.830000     0.152724     6.481482
    1.840000     0.153582     6.496772
    1.850000     0.154447     6.512150
    1.860000     0.155320     6.527615
    1.870000     0.156201     6.543165
    1.880000     0.157089     6.558806
    1.890001     0.157984     6.574534
    1.900001     0.158887     6.590352
    1.910001     0.159798     6.606260
    1.920001     0.160717     6.622259
    1.930001     0.161644     6.638350
    1.940001     0.162579     6.654534
    1.950001     0.163522     6.670812
    1.960001     0.164473     6.687183
    1.970001     0.165433     6.703652
    1.980000     0.166401     6.720214
    1.990000     0.167378     6.736874
    2.000000     0.168363     6.753632
    2.010000     0.169358     6.770488
    2.020000     0.170361     6.787443
    2.030000     0.171373     6.804501
    2.040000     0.172394     6.821659
    2.050000     0.173424     6.838918
    2.060000     0.174463     6.856282
    2.070000     0.175512     6.873748
    2.080000     0.176571     6.891319
    2.090000     0.177639     6.908998
    2.100000     0.178717     6.926782
    2.110000     0.179804     6.944674
    2.120000     0.180902     6.962678
    2.130000     0.182010     6.980789
    2.140000     0.183128     6.999010
    2.150000     0.184257     7.017346
    2.160000     0.185396     7.035793
    2.170000     0.186545     7.054353
    2.180000     0.187706     7.073031
    2.190000     0.188877     7.091822
    2.200000     0.190059     7.110732
    2.210000     0.191253     7.129759
    2.220000     0.192458     7.148907
    2.230000     0.193674     7.168177
    2.240000     0.194902     7.187566
    2.250000     0.196141     7.207078
    2.260001     0.197393     7.226717
    2.270001     0.198657     7.246478
    2.280001     0.199933     7.266366
    2.290001     0.201221     7.286382
    2.300001     0.202522     7.306527
    2.310001     0.203835     7.326802
    2.320000     0.205162     7.347208
    2.330000     0.206501     7.367747
    2.340000     0.207854     7.388419
    2.350000     0.209220     7.409228
    2.360000     0.210599     7.430174
    2.370000     0.211993     7.451258
    2.380000     0.213400     7.472481
    2.390000     0.214821     7.493843
    2.400000     0.216257     7.515349
    2.410000     0.217707     7.536997
    2.420000     0.219172     7.558792
    2.430000     0.220652     7.580734
    2.440000     0.222147     7.602823
    2.450000     0.223657     7.625062
    2.460000     0.225183     7.647451
    2.470000     0.226724     7.669993
    2.480000     0.228282     7.692691
    2.490000     0.229855     7.715542
    2.500000     0.231445     7.738552
    2.510000     0.233052     7.761720
    2.520000     0.234675     7.785048
    2.530000     0.236316     7.808541
    2.540000     0.237974     7.832197
    2.550000     0.239649     7.856019
    2.560000     0.241343     7.880007
    2.570000     0.243054     7.904167
    2.580000     0.244784     7.928498
    2.590000     0.246532     7.953002
    2.600000     0.248300     7.977680
    2.610000     0.250086     8.002534
    2.620001     0.251892     8.027569
    2.630001     0.253718     8.052784
    2.640001     0.255563     8.078180
    2.650001     0.257429     8.103761
    2.660001     0.259316     8.129528
    2.670001     0.261223     8.155485
    2.680001     0.263152     8.181633
    2.690001     0.265102     8.207973
    2.700001     0.267074     8.234507
    2.710001     0.269069     8.261238
    2.720001     0.271085     8.288171
    2.730000     0.273125     8.315304
    2.740000     0.275188     8.342641
    2.750000     0.277274     8.370184
    2.760000     0.279385     8.397936
    2.770000     0.281520     8.425900
    2.780000     0.283679     8.454075
    2.790000     0.285863     8.482468
    2.800000     0.288073     8.511080
    2.810000     0.290309     8.539910
    2.820000     0.292571     8.568967
    2.830000     0.294860     8.598248
    2.840000     0.297176     8.627760
    2.850000     0.299519     8.657499
    2.860000     0.301890     8.687477
    2.870000     0.304290     8.717690
    2.880000     0.306718     8.748144
    2.890000     0.309176     8.778839
    2.900000     0.311664     8.809779
    2.910000     0.314182     8.840970
    2.920000     0.316731     8.872412
    2.930000     0.319311     8.904108
    2.940000     0.321923     8.936063
    2.950000     0.324567     8.968277
    2.960000     0.327245     9.000756
    2.970000     0.329955     9.033504
    2.980000     0.332700     9.066521
    2.990001     0.335479     9.099815
    3.000001     0.338294     9.133385
    3.010001     0.341144     9.167236
    3.020001     0.344030     9.201371
    3.030000     0.346954     9.235795
    3.040000     0.349915     9.270514
    3.050000     0.352915     9.305525
    3.060000     0.355953     9.340837
    3.070000     0.359031     9.376451
    3.080000     0.362149     9.412374
    3.090000     0.365309     9.448608
    3.100000     0.368510     9.485158
    3.110000     0.371753     9.522028
    3.120000     0.375040     9.559222
    3.130000     0.378371     9.596744
    3.140000     0.381747     9.634598
    3.150000     0.385168     9.672788
    3.160000     0.388636     9.711322
    3.170000     0.392151     9.750201
    3.180000     0.395715     9.789431
    3.190000     0.399327     9.829016
    3.200000     0.402989     9.868962
    3.210000     0.406703     9.909274
    3.220000     0.410468     9.949958
    3.230000     0.414286     9.991015
     3.24000      0.41816     10.03246
     3.25000      0.42208     10.07428
     3.26000      0.42607     10.11650
     3.27000      0.43011     10.15912
     3.28000      0.43420     10.20214
     3.29000      0.43836     10.24556
     3.30000      0.44258     10.28941
     3.31000      0.44686     10.33367
     3.32000      0.45120     10.37836
     3.33000      0.45561     10.42348
     3.34000      0.46008     10.46905
     3.35000      0.46461     10.51506
     3.36000      0.46922     10.56152
     3.37000      0.47389     10.60844
     3.38000      0.47864     10.65583
     3.39000      0.48346     10.70369
     3.40000      0.48835     10.75203
     3.41000      0.49331     10.80086
     3.42000      0.49836     10.85019
     3.43000      0.50348     10.90001
     3.44000      0.50868     10.95034
     3.45000      0.51396     11.00120
     3.46000      0.51933     11.05259
     3.47000      0.52478     11.10450
     3.48000      0.53031     11.15696
     3.49000      0.53594     11.20997
     3.50000      0.54166     11.26355
     3.51000      0.54747     11.31769
     3.52000      0.55337     11.37241
     3.53000      0.55937     11.42772
     3.54000      0.56547     11.48362
     3.55000      0.57167     11.54014
     3.56000      0.57797     11.59727
     3.57000      0.58438     11.65503
     3.58000      0.59090     11.71343
     3.59000      0.59753     11.77247
     3.60000      0.60427     11.83218
     3.61000      0.61113     11.89256
     3.62000      0.61810     11.95362
     3.63000      0.62520     12.01537
     3.64000      0.63242     12.07784
     3.65000      0.63976     12.14101
     3.66000      0.64724     12.20492
     3.67000      0.65485     12.26957
     3.68000      0.66259     12.33498
     3.69000      0.67048     12.40116
     3.70000      0.67850     12.46813
     3.71000      0.68668     12.53588
     3.72000      0.69500     12.60446
     3.73000      0.70347     12.67386
     3.74000      0.71211     12.74411
     3.75000      0.72090     12.81521
     3.76000      0.72986     12.88719
     3.77000      0.73899     12.96005
     3.78000      0.74829     13.03383
     3.79000      0.75777     13.10852
     3.80000      0.76744     13.18417
     3.81000      0.77729     13.26076
     3.82000      0.78733     13.33834
     3.83000      0.79757     13.41691
     3.84000      0.80802     13.49650
     3.85000      0.81867     13.57712
     3.86000      0.82954     13.65881
     3.87000      0.84062     13.74156
     3.88000      0.85194     13.82542
     3.89000      0.86348     13.91040
     3.90000      0.87526     13.99653
     3.91000      0.88729     14.08383
     3.92000      0.89957     14.17230
     3.93000      0.91211     14.26201
     3.94000      0.92491     14.35294
     3.95000      0.93799     14.44517
     3.96000      0.95135     14.53866
     3.97000      0.96500     14.63350
     3.98000      0.97894     14.72966
     3.99000      0.99320     14.82723
     4.00000      1.00777     14.92619
     4.01000      1.02267     15.02660
     4.02000      1.03790     15.12847
     4.03000      1.05349     15.23187
     4.04000      1.06942     15.33678
     4.05000      1.08573     15.44329
     4.06000      1.10241     15.55139
     4.07000      1.11949     15.66115
     4.08000      1.13697     15.77259
     4.09000      1.15486     15.88576
     4.10000      1.17319     16.00068
     4.11000      1.19196     16.11743
     4.12000      1.21119     16.23600
     4.13000      1.23089     16.35649
     4.14000      1.25108     16.47890
     4.15000      1.27178     16.60332
     4.16000      1.29300     16.72976
     4.17000      1.31477     16.85830
     4.18000      1.33709     16.98895
     4.19000      1.35999     17.12183
     4.20000      1.38349     17.25694
     4.21000      1.40761     17.39437
     4.22000      1.43238     17.53414
     4.23000      1.45781     17.67637
     4.24000      1.48393     17.82107
     4.25000      1.51077     17.96835
     4.26000      1.53835     18.11824
     4.27000      1.56670     18.27085
     4.28000      1.59586     18.42623
     4.29000      1.62584     18.58444
     4.30000      1.65668     18.74561
     4.31000      1.68842     18.90976
     4.32000      1.72109     19.07703
     4.33000      1.75473     19.24747
     4.34000      1.78938     19.42120
     4.35000      1.82507     19.59829
     4.36000      1.86186     19.77888
     4.37000      1.89978     19.96301
     4.38000      1.93889     20.15086
     4.39000      1.97922     20.34248
     4.40000      2.02085     20.53803
     4.41000      2.06382     20.73759
     4.42000      2.10819     20.94135
     4.43000      2.15402     21.14935
     4.44000      2.20139     21.36183
     4.45000      2.25034     21.57884
     4.46000      2.30098     21.80062
     4.47000      2.35335     22.02722
     4.48000      2.40757     22.25891
     4.49000      2.46369     22.49576
     4.50000      2.52184     22.73805
     4.51000      2.58208     22.98586
     4.52000      2.64454     23.23948
     4.53000      2.70931     23.49903
     4.54000      2.77653     23.76481
     4.55000      2.84631     24.03695
     4.56000      2.91879     24.31577
     4.57000      2.99410     24.60142
     4.58000      3.07241     24.89426
     4.59000      3.15385     25.19447
     4.60000      3.23864     25.50241
     4.61000      3.32691     25.81830
     4.62000      3.41890     26.14254
     4.63000      3.51481     26.47542
     4.64000      3.61484     26.81721
     4.65000      3.71928     27.16841
     4.66000      3.82834     27.52927
     4.67000      3.94235     27.90032
     4.68000      4.06156     28.28188
     4.69000      4.18636     28.67450
     4.70000      4.31703     29.07855
     4.71000      4.45402     29.49464
     4.72000      4.59768     29.92319
     4.73000      4.74852     30.36488
     4.74000      4.90695     30.82019
     4.75000      5.07356     31.28986
     4.76000      5.24886     31.77445
     4.77000      5.43353     32.27478
     4.78000      5.62819     32.79147
     4.79000      5.83364     33.32546
     4.80000      6.05062     33.87745
     4.81000      6.28008     34.44849
     4.82000      6.52292     35.03935
     4.83000      6.78028     35.65125
     4.84000      7.05325     36.28506
     4.85000      7.34321     36.94213
     4.86000      7.65150     37.62346
     4.87000      7.97979     38.33056
     4.88000      8.32971     39.06457
     4.89000      8.70334     39.82721
     4.90000      9.10271     40.61974
     4.91000      9.53034     41.44408
     4.92000      9.98881     42.30170
     4.93000     10.48126     43.19469
     4.94000     11.01091     44.12468
     4.95000     11.58174     45.09403
     4.96000     12.19784     46.10449
     4.97000     12.86425     47.15861
     4.98000     13.58622     48.25829
     4.99000     14.37020     49.40619
     5.00000     15.22314     50.60444
     5.01000     16.15293     51.85507
     5.02000     17.16907     53.16068
     5.03000     18.28173     54.52276
     5.04000     19.50335     55.94336
     5.05000     20.84734     57.42311
     5.06000     22.33006     58.96281
     5.07000     23.96930     60.56120
     5.08000     25.78662     62.21647
     5.09000     27.80557     63.92369
     5.10000     30.05444     65.67599
     5.11000     32.56405     67.46143
     5.12000     35.37091     69.26382
     5.13000     38.51410     71.05850
     5.14000     42.03871     72.81239
     5.15000     45.99089     74.47861
     5.16000     50.42071     75.99506
     5.17000     55.37365     77.27801
     5.18000     60.89089     78.21951
     5.19000     66.99420     78.68164
     5.20000     73.68035     78.49562
     5.21000     80.89630     77.46352
     5.22000     88.52711     75.36854
     5.23000     96.36638     71.99918
      5.2400     104.1128      67.1846
      5.2500     111.3663      60.8509
      5.2600     117.6740      53.0697
      5.2700     122.5934      44.1032
      5.2800     125.7951      34.3873
      5.2900     127.1433      24.4800
      5.3000     126.7409      14.9403
      5.3100     124.9009       6.2261
      5.3200     122.0642      -1.3984
      5.3300     118.6973      -7.8739
      5.3400     115.1974     -13.3264
      5.3500     111.8388     -17.9988
      5.3600     108.7443     -22.1883
      5.3700     105.8937     -26.1758
      5.3800     103.1495     -30.1725
      5.3900     100.3004     -34.2818
     5.40000     97.12470    -38.47730
     5.41000     93.44836    -42.62074
     5.42000     89.19697    -46.50013
     5.43000     84.40755    -49.89544
     5.44000     79.21602    -52.63002
     5.45000     73.80921    -54.60822
     5.46000     68.38567    -55.81651
     5.47000     63.11404    -56.30941
     5.48000     58.12266    -56.18187
     5.49000     53.49006    -55.54589
     5.50000     49.25806    -54.51283
     5.51000     45.43546    -53.18213
     5.52000     42.01357    -51.63827
     5.53000     38.96938    -49.94836
     5.54000     36.27588    -48.16541
     5.55000     33.90224    -46.32850
     5.56000     31.81984    -44.46741
     5.57000     30.00066    -42.60260
     5.58000     28.42081    -40.74944
     5.59000     27.05843    -38.91739
     5.60000     25.89586    -37.11367
     5.61000     24.91780    -35.34186
     5.62000     24.11270    -33.60510
     5.63000     23.47131    -31.90436
     5.64000     22.98766    -30.24135
     5.65000     22.65804    -28.61674
     5.66000     22.48158    -27.03290
     5.67000     22.45971    -25.49234
     5.68000     22.59635    -24.00030
     5.69000     22.89765    -22.56362
     5.70000     23.37160    -21.19354
     5.71000     24.02789    -19.90490
     5.72000     24.87653    -18.71929
     5.73000     25.92720    -17.66483
     5.74000     27.18620    -16.77911
     5.75000     28.65330    -16.10966
     5.76000     30.31783    -15.71416
     5.77000     32.15068    -15.65952
     5.78000     34.09928    -16.01683
     5.79000     36.07858    -16.85213
     5.80000     37.97036    -18.21241
     5.81000     39.62513    -20.10591
     5.82000     40.88011    -22.48581
     5.83000     41.58439    -25.23810
     5.84000     41.63332    -28.19127
     5.85000     40.99437    -31.13858
     5.86000     39.71591    -33.87973
     5.87000     37.91444    -36.25343
     5.88000     35.74371    -38.16248
     5.89000     33.36447    -39.57326
     5.90000     30.91691    -40.50573
     5.91000     28.51073    -41.01293
     5.92000     26.21976    -41.16415
     5.93000     24.08923    -41.03102
     5.94000     22.13982    -40.67960
     5.95000     20.37740    -40.16674
     5.96000     18.79646    -39.53873
     5.97000     17.38672    -38.83249
     5.98000     16.13417    -38.07617
     5.99000     15.02483    -37.29159
     6.00000     14.04432    -36.49467
     6.01000     13.17996    -35.69779
     6.02000     12.41977    -34.90979
     6.03000     11.75368    -34.13791
     6.04000     11.17249    -33.38739
     6.05000     10.66853    -32.66329
     6.06000     10.23466    -31.96967
     6.07000      9.86459    -31.31112
     6.08000      9.55179    -30.69202
     6.09000      9.28948    -30.11745
     6.10000      9.06956    -29.59219
     6.11000      8.88237    -29.12080
     6.12000      8.71617    -28.70639
     6.13000      8.55730    -28.34906
     6.14000      8.39141    -28.04516
     6.15000      8.20507    -27.78595
     6.16000      7.98843    -27.55844
     6.17000      7.73690    -27.34691
     6.18000      7.45220    -27.13588
     6.19000      7.14111    -26.91255
     6.20000      6.81373    -26.66881
     6.21000      6.48067    -26.40124
     6.22000      6.15158    -26.11049
     6.23000      5.83368    -25.79971
     6.24000      5.53197    -25.47348
     6.25000      5.24907    -25.13645
     6.26000      4.98614    -24.79314
     6.27000      4.74296    -24.44721
     6.28000      4.51879    -24.10179
     6.29000      4.31230    -23.75910
     6.30000      4.12215    -23.42099
     6.31000      3.94678    -23.08856
     6.32000      3.78486    -22.76277
     6.33000      3.63499    -22.44407
     6.34000      3.49602    -22.13286
     6.35000      3.36680    -21.82919
     6.36000      3.24641    -21.53317
     6.37000      3.13394    -21.24467
     6.38000      3.02866    -20.96363
     6.39000      2.92986    -20.68981
     6.40000      2.83698    -20.42309
     6.41000      2.74946    -20.16318
     6.42000      2.66685    -19.90994
     6.43000      2.58872    -19.66307
     6.44000      2.51472    -19.42243
     6.45000      2.44449    -19.18771
     6.46000      2.37776    -18.95872
     6.47000      2.31427    -18.73532
     6.48000      2.25376    -18.51721
     6.49000      2.19604    -18.30426
     6.50000      2.14089    -18.09624
     6.51000      2.08816    -17.89301
     6.52000      2.03767    -17.69436
     6.53000      1.98930    -17.50018
     6.54000      1.94288    -17.31023
     6.55000      1.89833    -17.12445
     6.56000      1.85552    -16.94262
     6.57000      1.81435    -16.76466
     6.58000      1.77472    -16.59039
     6.59000      1.73656    -16.41975
     6.60000      1.69977    -16.25256
     6.61000      1.66429    -16.08875
     6.62000      1.63005    -15.92816
     6.63000      1.59698    -15.77075
     6.64000      1.56503    -15.61637
     6.65000      1.53414    -15.46497
     6.66000      1.50426    -15.31640
     6.67000      1.47534    -15.17065
     6.68000      1.44733    -15.02756
     6.69000      1.42020    -14.88710
     6.70000      1.39391    -14.74918
     6.71000      1.36841    -14.61373
     6.72000      1.34367    -14.48065
     6.73000      1.31967    -14.34993
     6.74000      1.29636    -14.22145
     6.75000      1.27373    -14.09518
     6.76000      1.25174    -13.97103
     6.77000      1.23036    -13.84899
     6.78000      1.20958    -13.72895
     6.79000      1.18936    -13.61091
     6.80000      1.16969    -13.49476
     6.81000      1.15055    -13.38050
     6.82000      1.13192    -13.26805
     6.83000      1.11377    -13.15738
     6.84000      1.09609    -13.04846
     6.85000      1.07886    -12.94121
     6.86000      1.06207    -12.83562
     6.87000      1.04570    -12.73162
     6.88000      1.02974    -12.62920
     6.89000      1.01416    -12.52830
     6.90000      0.99897    -12.42891
     6.91000      0.98414    -12.33096
     6.92000      0.96967    -12.23445
     6.93000      0.95554    -12.13932
     6.94000      0.94174    -12.04556
     6.95000      0.92826    -11.95312
     6.96000      0.91509    -11.86199
     6.97000      0.90222    -11.77211
     6.98000      0.88964    -11.68349
     6.99000      0.87735    -11.59607
     7.00000      0.86532    -11.50986
     7.01000      0.85357    -11.42478
     7.02000      0.84207    -11.34086
     7.03000      0.83081    -11.25804
     7.04000      0.81980    -11.17632
     7.05000      0.80903    -11.09565
     7.06000      0.79849    -11.01604
     7.07000      0.78816    -10.93744
     7.08000      0.77805    -10.85985
     7.09000      0.76815    -10.78323
     7.10000      0.75846    -10.70758
     7.11000      0.74896    -10.63286
     7.12000      0.73966    -10.55908
     7.13000      0.73055    -10.48618
     7.14000      0.72161    -10.41419
     7.15000      0.71286    -10.34305
     7.16000      0.70428    -10.27277
     7.17000      0.69586    -10.20332
     7.18000      0.68762    -10.13470
     7.19000      0.67953    -10.06687
    7.200001     0.671595    -9.999827
    7.210000     0.663816    -9.933566
    7.220001     0.656185    -9.868054
    7.230000     0.648699    -9.803295
    7.240001     0.641354    -9.739258
    7.250000     0.634149    -9.675946
    7.260001     0.627076    -9.613329
    7.270000     0.620137    -9.551409
    7.280001     0.613325    -9.490159
    7.290000     0.606639    -9.429584
    7.300001     0.600075    -9.369650
    7.310000     0.593632    -9.310369
    7.320001     0.587306    -9.251704
    7.330000     0.581095    -9.193671
    7.340001     0.574995    -9.136234
    7.350000     0.569006    -9.079402
    7.360001     0.563123    -9.023147
    7.370000     0.557346    -8.967478
    7.380001     0.551671    -8.912363
    7.390000     0.546098    -8.857817
    7.400001     0.540622    -8.803802
    7.410000     0.535244    -8.750335
    7.420001     0.529960    -8.697385
    7.430000     0.524769    -8.644961
    7.440001     0.519669    -8.593038
    7.450000     0.514659    -8.541622
    7.460001     0.509735    -8.490687
    7.470000     0.504898    -8.440247
    7.480000     0.500145    -8.390271
    7.490000     0.495475    -8.340771
    7.500000     0.490885    -8.291719
    7.510000     0.486376    -8.243125
    7.520000     0.481946    -8.194966
    7.529999     0.477592    -8.147248
    7.540000     0.473314    -8.099954
    7.549999     0.469112    -8.053083
    7.560000     0.464982    -8.006621
    7.570001     0.460924    -7.960560
    7.580000     0.456938    -7.914909
    7.590001     0.453021    -7.869641
    7.600000     0.449174    -7.824766
    7.610001     0.445394    -7.780258
    7.620000     0.441682    -7.736133
    7.630001     0.438036    -7.692363
    7.640000     0.434455    -7.648959
    7.650001     0.430938    -7.605902
    7.660000     0.427485    -7.563198
    7.670001     0.424095    -7.520823
    7.680000     0.420768    -7.478792
    7.690001     0.417501    -7.437079
    7.700000     0.414296    -7.395697
    7.710001     0.411150    -7.354621
    7.720000     0.408065    -7.313866
    7.730000     0.405039    -7.273405
    7.740000     0.402071    -7.233248
    7.750000     0.399162    -7.193378
    7.760000     0.396310    -7.153801
    7.770000     0.393516    -7.114498
    7.780000     0.390779    -7.075478
    7.790000     0.388099    -7.036723
    7.800000     0.385476    -6.998238
    7.810000     0.382909    -6.960005
    7.820000     0.380399    -6.922033
    7.830000     0.377944    -6.884302
    7.840000     0.375546    -6.846817
    7.850000     0.373204    -6.809566
    7.860000     0.370918    -6.772553
    7.870000     0.368689    -6.735760
    7.880000     0.366516    -6.699194
    7.890000     0.364400    -6.662836
    7.900000     0.362341    -6.626696
    7.910000     0.360339    -6.590753
    7.920000     0.358395    -6.555015
    7.930000     0.356509    -6.519465
    7.940001     0.354682    -6.484101
    7.950000     0.352915    -6.448927
    7.960001     0.351208    -6.413923
    7.970000     0.349562    -6.379095
    7.980001     0.347978    -6.344423
    7.990000     0.346457    -6.309920
    8.000001     0.344999    -6.275565
    8.010000     0.343608    -6.241361
    8.020000     0.342283    -6.207293
    8.030000     0.341026    -6.173366
    8.040001     0.339839    -6.139559
    8.050000     0.338724    -6.105881
    8.060000     0.337682    -6.072313
    8.070000     0.336717    -6.038860
    8.080001     0.335830    -6.005503
    8.090000     0.335024    -5.972245
    8.100000     0.334301    -5.939069
    8.110000     0.333666    -5.905978
    8.120001     0.333121    -5.872955
    8.130000     0.332670    -5.840003
    8.140000     0.332318    -5.807098
    8.150000     0.332069    -5.774250
    8.160001     0.331928    -5.741435
    8.170000     0.331902    -5.708658
    8.180000     0.331995    -5.675896
    8.190000     0.332215    -5.643150
    8.200001     0.332570    -5.610405
    8.210000     0.333067    -5.577658
    8.220000     0.333718    -5.544889
    8.230000     0.334531    -5.512101
    8.240001     0.335520    -5.479268
    8.249999     0.336697    -5.446398
    8.260000     0.338077    -5.413467
    8.270000     0.339676    -5.380476
    8.280001     0.341514    -5.347408
    8.290001     0.343611    -5.314263
    8.300000     0.345989    -5.281040
    8.310001     0.348674    -5.247726
    8.320000     0.351692    -5.214338
    8.330001     0.355073    -5.180867
    8.340000     0.358843    -5.147341
    8.350001     0.363031    -5.113775
    8.360000     0.367657    -5.080206
    8.370001     0.372736    -5.046673
    8.380000     0.378264    -5.013234
    8.390000     0.384216    -4.979937
    8.400000     0.390534    -4.946850
    8.410001     0.397128    -4.914002
    8.420000     0.403869    -4.881406
    8.430000     0.410612    -4.848998
    8.440000     0.417213    -4.816660
    8.450001     0.423572    -4.784181
    8.460000     0.429663    -4.751321
    8.470000     0.435555    -4.717804
    8.480000     0.441404    -4.683409
    8.490001     0.447431    -4.647949
    8.500000     0.453875    -4.611336
    8.510000     0.460979    -4.573522
    8.520000     0.468953    -4.534519
    8.530001     0.477987    -4.494344
    8.540000     0.488241    -4.453040
    8.550000     0.499862    -4.410619
    8.559999     0.512989    -4.367114
    8.570001     0.527771    -4.322509
    8.580000     0.544358    -4.276813
    8.590000     0.562934    -4.229991
    8.599999     0.583694    -4.182038
    8.610001     0.606877    -4.132909
    8.620000     0.632748    -4.082600
    8.630000     0.661631    -4.031077
    8.639999     0.693882    -3.978359
    8.650001     0.729937    -3.924447
    8.660001     0.770285    -3.869406
    8.670000     0.815490    -3.813344
    8.680001     0.866225    -3.756415
    8.690001     0.923232    -3.698895
    8.700001     0.987395    -3.641147
    8.710000     1.059672    -3.583735
    8.720001     1.141182    -3.527411
    8.730000     1.233098    -3.473258
    8.740001     1.336724    -3.422702
    8.750000     1.453316    -3.377704
    8.760001     1.584109    -3.340808
    8.770000     1.729985    -3.315338
    8.780001     1.891373    -3.305463
    8.790000     2.067659    -3.316271
    8.800001     2.256875    -3.353657
    8.809999     2.454842    -3.423951
    8.820001     2.654827    -3.533222
    8.830000     2.846941    -3.685980
    8.840000     3.018666    -3.883725
    8.849999     3.155830    -4.123130
    8.860001     3.245072    -4.395280
    8.870000     3.276547    -4.685727
    8.880000     3.246509    -4.976871
    8.889999     3.158307    -5.250817
    8.900001     3.021438    -5.493022
    8.910000     2.849215    -5.694079
    8.920000     2.655730    -5.850464
    8.929999     2.453756    -5.963342
    8.940001     2.253231    -6.037161
    8.950000     2.061188    -6.077892
    8.960000     1.881824    -6.091897
    8.969999     1.717326    -6.085108
    8.980000     1.568272    -6.062655
    8.990000     1.434368    -6.028781
    9.000000     1.314668    -5.986834
    9.009999     1.208021    -5.939426
    9.020000     1.113102    -5.888524
    9.030001     1.028647    -5.835604
    9.040000     0.953459    -5.781759
    9.050001     0.886407    -5.727759
    9.060000     0.826521    -5.674180
    9.070001     0.772903    -5.621392
    9.080000     0.724800    -5.569681
    9.090001     0.681524    -5.519198
    9.100000     0.642504    -5.470064
    9.110001     0.607219    -5.422314
    9.120000     0.575239    -5.375988
    9.130001     0.546172    -5.331058
    9.140000     0.519693    -5.287516
    9.150001     0.495505    -5.245311
    9.160000     0.473364    -5.204413
    9.170001     0.453042    -5.164759
    9.180000     0.434354    -5.126309
    9.190001     0.417124    -5.088997
    9.200000     0.401210    -5.052783
    9.210001     0.386476    -5.017604
    9.219999     0.372812    -4.983421
    9.230000     0.360111    -4.950172
    9.240000     0.348287    -4.917824
    9.250001     0.337256    -4.886320
    9.259999     0.326950    -4.855631
    9.270000     0.317302    -4.825703
    9.280000     0.308259    -4.796510
    9.290000     0.299766    -4.768009
    9.299999     0.291779    -4.740174
    9.310000     0.284257    -4.712963
    9.320000     0.277163    -4.686357
    9.330000     0.270461    -4.660321
    9.339999     0.264124    -4.634833
    9.350000     0.258123    -4.609861
    9.360000     0.252433    -4.585393
    9.370000     0.247031    -4.561396
    9.379999     0.241897    -4.537858
    9.390000     0.237012    -4.514752
    9.400001     0.232358    -4.492065
    9.410000     0.227921    -4.469783
    9.420001     0.223685    -4.447881
    9.430000     0.219637    -4.426350
    9.440001     0.215766    -4.405171
    9.450000     0.212059    -4.384333
    9.460001     0.208507    -4.363824
    9.470000     0.205100    -4.343632
    9.480000     0.201830    -4.323741
    9.490000     0.198688    -4.304146
    9.500001     0.195666    -4.284832
    9.510000     0.192758    -4.265794
    9.520000     0.189957    -4.247015
    9.530000     0.187258    -4.228495
    9.540001     0.184655    -4.210219
    9.550000     0.182142    -4.192182
    9.560000     0.179714    -4.174375
    9.570000     0.177369    -4.156793
    9.580001     0.175099    -4.139426
    9.590000     0.172903    -4.122271
    9.600000     0.170777    -4.105317
    9.610000     0.168716    -4.088564
    9.620001     0.166718    -4.071999
    9.630000     0.164780    -4.055627
    9.640000     0.162898    -4.039430
    9.650000     0.161071    -4.023411
    9.660001     0.159296    -4.007564
    9.669999     0.157570    -3.991888
    9.680000     0.155890    -3.976370
    9.690000     0.154257    -3.961014
    9.700001     0.152666    -3.945809
    9.709999     0.151116    -3.930759
    9.720000     0.149606    -3.915854
    9.730000     0.148134    -3.901093
    9.740000     0.146697    -3.886471
    9.750001     0.145296    -3.871986
    9.760000     0.143928    -3.857637
    9.770001     0.142592    -3.843416
    9.780000     0.141287    -3.829326
    9.790001     0.140012    -3.815358
    9.800000     0.138765    -3.801515
    9.810000     0.137545    -3.787790
    9.820000     0.136352    -3.774183
    9.830001     0.135184    -3.760690
    9.840000     0.134040    -3.747312
    9.850000     0.132921    -3.734041
    9.860000     0.131824    -3.720879
    9.870001     0.130748    -3.707823
    9.880000     0.129695    -3.694872
    9.890000     0.128661    -3.682022
    9.900000     0.127648    -3.669273
    9.910001     0.126653    -3.656622
    9.920000     0.125678    -3.644066
    9.930000     0.124720    -3.631605
    9.940000     0.123779    -3.619239
    9.950001     0.122855    -3.606964
    9.960000     0.121948    -3.594778
    9.970000     0.121056    -3.582679
    9.980000     0.120179    -3.570670
    9.990001     0.119318    -3.558742
    10.00000      0.11847     -3.54690
# 
# 04/09/2018 at 16:08 YAMBO @ narro [start]
# 04/09/2018 at 16:08               [end]
#  
# Timing   [Min/Max/Average]: 07s/07s/07s
#
# .-Input file : yambo.in
# | optics                         # [R OPT] Optics
# | bse                            # [R BSE] Bethe Salpeter Equation.
# | BoseTemp= 0.000000     eV      # Bosonic Temperature
# | FFTGvecs=  3473        RL      # [FFT] Plane-waves
# | BSEmod= "resonant"             # [BSE] resonant/retarded/coupling
# | BSKmod= "IP"                   # [BSE] IP/Hartree/HF/ALDA/SEX/BSfxc
# | % BEnRange
# | -10.00000 | 10.00000 | eV      # [BSS] Energy range
# | %
# | % BDmRange
# |   0.10000 |  0.10000 | eV      # [BSS] Damping range
# | %
# | BEnSteps= 2001                 # [BSS] Energy steps
# | % BLongDir
# | 0.1000E-4 | 0.000    | 0.000    |        # [BSS] [cc] Electric Field
# | %
# | % BSEQptR
# |   1 |  4 |                     # [BSK] Transferred momenta range
# | %
# | % BSEBands
# |   1 | 10 |                     # [BSK] Bands range
# | %
