#                                                           
#  __  __   ________   ___ __ __    _______   ______        
# /_/\/_/\ /_______/\ /__//_//_/\ /_______/\ /_____/\       
# \ \ \ \ \\::: _  \ \\::\| \| \ \\::: _  \ \\:::_ \ \      
#  \:\_\ \ \\::(_)  \ \\:.      \ \\::(_)  \/_\:\ \ \ \     
#   \::::_\/ \:: __  \ \\:.\-/\  \ \\::  _  \ \\:\ \ \ \    
#     \::\ \  \:.\ \  \ \\. \  \  \ \\::(_)  \ \\:\_\ \ \   
#      \__\/   \__\/\__\/ \__\/ \__\/ \_______\/ \_____\/   
#                                                           
#                                                           
#        Version 4.3.0 Revision 15341 Hash c146fb2          
#                      MPI+SLK Build                        
#                http://www.yambo-code.org                  
#
# Absorption @ Q(3) [iku] : 0.000000  0.000000  0.500000
#
#
# - Energies      are Teter 93(XC)
# - Wavefunctions are Teter 93(XC)
#
# - The Green`s function is Resonant -
#
#   BSK|Identifier              :1700
#      |Dimension               :96
#      |Bands                   :3 - 10
#      |Exchange           [res]: yes
#      |Correlation        [res]: no
#      |Kernel`s coupling       : no
#      |Exchange           [cpl]: no
#      |Correlation        [cpl]: no
#      |W interaction is bare   : no
#      |ALDA kernel in R-space  : no
#      |RL vectors    [exchange]:63
#      |E/h energy range    [ev]:-1.000000 - -1.000000
#      |Coupling range     [o/o]: 100.0000 -  100.0000
#
#    E/ev[1]      EPS-Im[2]    EPS-Re[3]    EPSo-Im[4]   EPSo-Re[5]
#
   -10.00       0.1437E-2     1.276       0.1522E-2     1.286   
   -9.990       0.1439E-2     1.276       0.1524E-2     1.286   
   -9.980       0.1440E-2     1.276       0.1526E-2     1.287   
   -9.970       0.1442E-2     1.276       0.1527E-2     1.287   
   -9.960       0.1444E-2     1.277       0.1529E-2     1.287   
   -9.950       0.1445E-2     1.277       0.1531E-2     1.287   
   -9.940       0.1447E-2     1.277       0.1533E-2     1.287   
   -9.930       0.1448E-2     1.277       0.1534E-2     1.287   
   -9.920       0.1450E-2     1.277       0.1536E-2     1.287   
   -9.910       0.1452E-2     1.277       0.1538E-2     1.288   
   -9.900       0.1453E-2     1.277       0.1539E-2     1.288   
   -9.890       0.1455E-2     1.278       0.1541E-2     1.288   
   -9.880       0.1456E-2     1.278       0.1543E-2     1.288   
   -9.870       0.1458E-2     1.278       0.1545E-2     1.288   
   -9.860       0.1460E-2     1.278       0.1546E-2     1.288   
   -9.850       0.1461E-2     1.278       0.1548E-2     1.289   
   -9.840       0.1463E-2     1.278       0.1550E-2     1.289   
   -9.830       0.1464E-2     1.278       0.1551E-2     1.289   
   -9.820       0.1466E-2     1.279       0.1553E-2     1.289   
   -9.810       0.1468E-2     1.279       0.1555E-2     1.289   
   -9.800       0.1469E-2     1.279       0.1557E-2     1.289   
   -9.790       0.1471E-2     1.279       0.1558E-2     1.289   
   -9.780       0.1473E-2     1.279       0.1560E-2     1.290   
   -9.770       0.1474E-2     1.279       0.1562E-2     1.290   
   -9.760       0.1476E-2     1.279       0.1564E-2     1.290   
   -9.750       0.1478E-2     1.280       0.1565E-2     1.290   
   -9.740       0.1479E-2     1.280       0.1567E-2     1.290   
   -9.730       0.1481E-2     1.280       0.1569E-2     1.290   
   -9.720       0.1483E-2     1.280       0.1571E-2     1.291   
   -9.710       0.1484E-2     1.280       0.1573E-2     1.291   
   -9.700       0.1486E-2     1.280       0.1574E-2     1.291   
   -9.690       0.1488E-2     1.280       0.1576E-2     1.291   
   -9.680       0.1489E-2     1.281       0.1578E-2     1.291   
   -9.670       0.1491E-2     1.281       0.1580E-2     1.291   
   -9.660       0.1493E-2     1.281       0.1581E-2     1.291   
   -9.650       0.1494E-2     1.281       0.1583E-2     1.292   
   -9.640       0.1496E-2     1.281       0.1585E-2     1.292   
   -9.630       0.1498E-2     1.281       0.1587E-2     1.292   
   -9.620       0.1499E-2     1.282       0.1589E-2     1.292   
   -9.610       0.1501E-2     1.282       0.1590E-2     1.292   
   -9.600       0.1503E-2     1.282       0.1592E-2     1.292   
   -9.590       0.1504E-2     1.282       0.1594E-2     1.293   
   -9.580       0.1506E-2     1.282       0.1596E-2     1.293   
   -9.570       0.1508E-2     1.282       0.1598E-2     1.293   
   -9.560       0.1509E-2     1.282       0.1599E-2     1.293   
   -9.550       0.1511E-2     1.283       0.1601E-2     1.293   
   -9.540       0.1513E-2     1.283       0.1603E-2     1.293   
   -9.530       0.1515E-2     1.283       0.1605E-2     1.294   
   -9.520       0.1516E-2     1.283       0.1607E-2     1.294   
   -9.510       0.1518E-2     1.283       0.1609E-2     1.294   
   -9.500       0.1520E-2     1.283       0.1610E-2     1.294   
   -9.490       0.1521E-2     1.283       0.1612E-2     1.294   
   -9.480       0.1523E-2     1.284       0.1614E-2     1.294   
   -9.470       0.1525E-2     1.284       0.1616E-2     1.295   
   -9.460       0.1527E-2     1.284       0.1618E-2     1.295   
   -9.450       0.1528E-2     1.284       0.1620E-2     1.295   
   -9.440       0.1530E-2     1.284       0.1622E-2     1.295   
   -9.430       0.1532E-2     1.284       0.1623E-2     1.295   
   -9.420       0.1534E-2     1.285       0.1625E-2     1.295   
   -9.410       0.1535E-2     1.285       0.1627E-2     1.295   
   -9.400       0.1537E-2     1.285       0.1629E-2     1.296   
   -9.390       0.1539E-2     1.285       0.1631E-2     1.296   
   -9.380       0.1541E-2     1.285       0.1633E-2     1.296   
   -9.370       0.1542E-2     1.285       0.1635E-2     1.296   
   -9.360       0.1544E-2     1.285       0.1637E-2     1.296   
   -9.350       0.1546E-2     1.286       0.1638E-2     1.296   
   -9.340       0.1548E-2     1.286       0.1640E-2     1.297   
   -9.330       0.1550E-2     1.286       0.1642E-2     1.297   
   -9.320       0.1551E-2     1.286       0.1644E-2     1.297   
   -9.310       0.1553E-2     1.286       0.1646E-2     1.297   
   -9.300       0.1555E-2     1.286       0.1648E-2     1.297   
   -9.290       0.1557E-2     1.287       0.1650E-2     1.297   
   -9.280       0.1558E-2     1.287       0.1652E-2     1.298   
   -9.270       0.1560E-2     1.287       0.1654E-2     1.298   
   -9.260       0.1562E-2     1.287       0.1656E-2     1.298   
   -9.250       0.1564E-2     1.287       0.1658E-2     1.298   
   -9.240       0.1566E-2     1.287       0.1659E-2     1.298   
   -9.230       0.1567E-2     1.287       0.1661E-2     1.298   
   -9.220       0.1569E-2     1.288       0.1663E-2     1.299   
   -9.210       0.1571E-2     1.288       0.1665E-2     1.299   
   -9.200       0.1573E-2     1.288       0.1667E-2     1.299   
   -9.190       0.1575E-2     1.288       0.1669E-2     1.299   
   -9.180       0.1577E-2     1.288       0.1671E-2     1.299   
   -9.170       0.1578E-2     1.288       0.1673E-2     1.299   
   -9.160       0.1580E-2     1.289       0.1675E-2     1.300   
   -9.150       0.1582E-2     1.289       0.1677E-2     1.300   
   -9.140       0.1584E-2     1.289       0.1679E-2     1.300   
   -9.130       0.1586E-2     1.289       0.1681E-2     1.300   
   -9.120       0.1588E-2     1.289       0.1683E-2     1.300   
   -9.110       0.1589E-2     1.289       0.1685E-2     1.300   
   -9.100       0.1591E-2     1.290       0.1687E-2     1.301   
   -9.090       0.1593E-2     1.290       0.1689E-2     1.301   
   -9.080       0.1595E-2     1.290       0.1691E-2     1.301   
   -9.070       0.1597E-2     1.290       0.1693E-2     1.301   
   -9.060       0.1599E-2     1.290       0.1695E-2     1.301   
   -9.050       0.1601E-2     1.290       0.1697E-2     1.301   
   -9.040       0.1603E-2     1.290       0.1699E-2     1.302   
   -9.030       0.1604E-2     1.291       0.1701E-2     1.302   
   -9.020       0.1606E-2     1.291       0.1703E-2     1.302   
   -9.010       0.1608E-2     1.291       0.1705E-2     1.302   
   -9.000       0.1610E-2     1.291       0.1707E-2     1.302   
   -8.990       0.1612E-2     1.291       0.1709E-2     1.302   
   -8.980       0.1614E-2     1.291       0.1711E-2     1.303   
   -8.970       0.1616E-2     1.292       0.1713E-2     1.303   
   -8.960       0.1618E-2     1.292       0.1715E-2     1.303   
   -8.950       0.1620E-2     1.292       0.1717E-2     1.303   
   -8.940       0.1621E-2     1.292       0.1719E-2     1.303   
   -8.930       0.1623E-2     1.292       0.1721E-2     1.304   
   -8.920       0.1625E-2     1.292       0.1723E-2     1.304   
   -8.910       0.1627E-2     1.293       0.1725E-2     1.304   
   -8.900       0.1629E-2     1.293       0.1727E-2     1.304   
   -8.890       0.1631E-2     1.293       0.1729E-2     1.304   
   -8.880       0.1633E-2     1.293       0.1731E-2     1.304   
   -8.870       0.1635E-2     1.293       0.1733E-2     1.305   
   -8.860       0.1637E-2     1.293       0.1735E-2     1.305   
   -8.850       0.1639E-2     1.294       0.1737E-2     1.305   
   -8.840       0.1641E-2     1.294       0.1740E-2     1.305   
   -8.830       0.1643E-2     1.294       0.1742E-2     1.305   
   -8.820       0.1645E-2     1.294       0.1744E-2     1.305   
   -8.810       0.1647E-2     1.294       0.1746E-2     1.306   
   -8.800       0.1649E-2     1.294       0.1748E-2     1.306   
   -8.790       0.1651E-2     1.295       0.1750E-2     1.306   
   -8.780       0.1652E-2     1.295       0.1752E-2     1.306   
   -8.770       0.1654E-2     1.295       0.1754E-2     1.306   
   -8.760       0.1656E-2     1.295       0.1756E-2     1.306   
   -8.750       0.1658E-2     1.295       0.1758E-2     1.307   
   -8.740       0.1660E-2     1.295       0.1761E-2     1.307   
   -8.730       0.1662E-2     1.296       0.1763E-2     1.307   
   -8.720       0.1664E-2     1.296       0.1765E-2     1.307   
   -8.710       0.1666E-2     1.296       0.1767E-2     1.307   
   -8.700       0.1668E-2     1.296       0.1769E-2     1.308   
   -8.690       0.1670E-2     1.296       0.1771E-2     1.308   
   -8.680       0.1672E-2     1.296       0.1773E-2     1.308   
   -8.670       0.1674E-2     1.297       0.1775E-2     1.308   
   -8.660       0.1676E-2     1.297       0.1778E-2     1.308   
   -8.650       0.1678E-2     1.297       0.1780E-2     1.308   
   -8.640       0.1680E-2     1.297       0.1782E-2     1.309   
   -8.630       0.1682E-2     1.297       0.1784E-2     1.309   
   -8.620       0.1684E-2     1.297       0.1786E-2     1.309   
   -8.610       0.1687E-2     1.298       0.1788E-2     1.309   
   -8.600       0.1689E-2     1.298       0.1791E-2     1.309   
   -8.590       0.1691E-2     1.298       0.1793E-2     1.309   
   -8.580       0.1693E-2     1.298       0.1795E-2     1.310   
   -8.570       0.1695E-2     1.298       0.1797E-2     1.310   
   -8.560       0.1697E-2     1.298       0.1799E-2     1.310   
   -8.550       0.1699E-2     1.299       0.1802E-2     1.310   
   -8.540       0.1701E-2     1.299       0.1804E-2     1.310   
   -8.530       0.1703E-2     1.299       0.1806E-2     1.311   
   -8.520       0.1705E-2     1.299       0.1808E-2     1.311   
   -8.510       0.1707E-2     1.299       0.1810E-2     1.311   
   -8.500       0.1709E-2     1.299       0.1813E-2     1.311   
   -8.490       0.1711E-2     1.300       0.1815E-2     1.311   
   -8.480       0.1713E-2     1.300       0.1817E-2     1.311   
   -8.470       0.1715E-2     1.300       0.1819E-2     1.312   
   -8.460       0.1717E-2     1.300       0.1821E-2     1.312   
   -8.450       0.1720E-2     1.300       0.1824E-2     1.312   
   -8.440       0.1722E-2     1.300       0.1826E-2     1.312   
   -8.430       0.1724E-2     1.301       0.1828E-2     1.312   
   -8.420       0.1726E-2     1.301       0.1830E-2     1.313   
   -8.410       0.1728E-2     1.301       0.1833E-2     1.313   
   -8.400       0.1730E-2     1.301       0.1835E-2     1.313   
   -8.390       0.1732E-2     1.301       0.1837E-2     1.313   
   -8.380       0.1734E-2     1.301       0.1839E-2     1.313   
   -8.370       0.1736E-2     1.302       0.1842E-2     1.313   
   -8.360       0.1739E-2     1.302       0.1844E-2     1.314   
   -8.350       0.1741E-2     1.302       0.1846E-2     1.314   
   -8.340       0.1743E-2     1.302       0.1849E-2     1.314   
   -8.330       0.1745E-2     1.302       0.1851E-2     1.314   
   -8.320       0.1747E-2     1.303       0.1853E-2     1.314   
   -8.310       0.1749E-2     1.303       0.1855E-2     1.315   
   -8.300       0.1752E-2     1.303       0.1858E-2     1.315   
   -8.290       0.1754E-2     1.303       0.1860E-2     1.315   
   -8.280       0.1756E-2     1.303       0.1862E-2     1.315   
   -8.270       0.1758E-2     1.303       0.1865E-2     1.315   
   -8.260       0.1760E-2     1.304       0.1867E-2     1.316   
   -8.250       0.1762E-2     1.304       0.1869E-2     1.316   
   -8.240       0.1765E-2     1.304       0.1872E-2     1.316   
   -8.230       0.1767E-2     1.304       0.1874E-2     1.316   
   -8.220       0.1769E-2     1.304       0.1876E-2     1.316   
   -8.210       0.1771E-2     1.304       0.1879E-2     1.316   
   -8.200       0.1773E-2     1.305       0.1881E-2     1.317   
   -8.190       0.1776E-2     1.305       0.1883E-2     1.317   
   -8.180       0.1778E-2     1.305       0.1886E-2     1.317   
   -8.170       0.1780E-2     1.305       0.1888E-2     1.317   
   -8.160       0.1782E-2     1.305       0.1890E-2     1.317   
   -8.150       0.1784E-2     1.306       0.1893E-2     1.318   
   -8.140       0.1787E-2     1.306       0.1895E-2     1.318   
   -8.130       0.1789E-2     1.306       0.1898E-2     1.318   
   -8.120       0.1791E-2     1.306       0.1900E-2     1.318   
   -8.110       0.1793E-2     1.306       0.1902E-2     1.318   
   -8.100       0.1796E-2     1.306       0.1905E-2     1.319   
   -8.090       0.1798E-2     1.307       0.1907E-2     1.319   
   -8.080       0.1800E-2     1.307       0.1910E-2     1.319   
   -8.070       0.1802E-2     1.307       0.1912E-2     1.319   
   -8.060       0.1805E-2     1.307       0.1914E-2     1.319   
   -8.050       0.1807E-2     1.307       0.1917E-2     1.319   
   -8.040       0.1809E-2     1.308       0.1919E-2     1.320   
   -8.030       0.1811E-2     1.308       0.1922E-2     1.320   
   -8.020       0.1814E-2     1.308       0.1924E-2     1.320   
   -8.010       0.1816E-2     1.308       0.1926E-2     1.320   
   -8.000       0.1818E-2     1.308       0.1929E-2     1.320   
   -7.990       0.1821E-2     1.308       0.1931E-2     1.321   
   -7.980       0.1823E-2     1.309       0.1934E-2     1.321   
   -7.970       0.1825E-2     1.309       0.1936E-2     1.321   
   -7.960       0.1827E-2     1.309       0.1939E-2     1.321   
   -7.950       0.1830E-2     1.309       0.1941E-2     1.321   
   -7.940       0.1832E-2     1.309       0.1944E-2     1.322   
   -7.930       0.1834E-2     1.310       0.1946E-2     1.322   
   -7.920       0.1837E-2     1.310       0.1949E-2     1.322   
   -7.910       0.1839E-2     1.310       0.1951E-2     1.322   
   -7.900       0.1841E-2     1.310       0.1954E-2     1.322   
   -7.890       0.1844E-2     1.310       0.1956E-2     1.323   
   -7.880       0.1846E-2     1.310       0.1959E-2     1.323   
   -7.870       0.1848E-2     1.311       0.1961E-2     1.323   
   -7.860       0.1851E-2     1.311       0.1964E-2     1.323   
   -7.850       0.1853E-2     1.311       0.1966E-2     1.323   
   -7.840       0.1856E-2     1.311       0.1969E-2     1.324   
   -7.830       0.1858E-2     1.311       0.1971E-2     1.324   
   -7.820       0.1860E-2     1.312       0.1974E-2     1.324   
   -7.810       0.1863E-2     1.312       0.1976E-2     1.324   
   -7.800       0.1865E-2     1.312       0.1979E-2     1.324   
   -7.790       0.1867E-2     1.312       0.1981E-2     1.325   
   -7.780       0.1870E-2     1.312       0.1984E-2     1.325   
   -7.770       0.1872E-2     1.312       0.1986E-2     1.325   
   -7.760       0.1875E-2     1.313       0.1989E-2     1.325   
   -7.750       0.1877E-2     1.313       0.1992E-2     1.325   
   -7.740       0.1879E-2     1.313       0.1994E-2     1.326   
   -7.730       0.1882E-2     1.313       0.1997E-2     1.326   
   -7.720       0.1884E-2     1.313       0.1999E-2     1.326   
   -7.710       0.1887E-2     1.314       0.2002E-2     1.326   
   -7.700       0.1889E-2     1.314       0.2004E-2     1.326   
   -7.690       0.1892E-2     1.314       0.2007E-2     1.327   
   -7.680       0.1894E-2     1.314       0.2010E-2     1.327   
   -7.670       0.1896E-2     1.314       0.2012E-2     1.327   
   -7.660       0.1899E-2     1.315       0.2015E-2     1.327   
   -7.650       0.1901E-2     1.315       0.2018E-2     1.327   
   -7.640       0.1904E-2     1.315       0.2020E-2     1.328   
   -7.630       0.1906E-2     1.315       0.2023E-2     1.328   
   -7.620       0.1909E-2     1.315       0.2025E-2     1.328   
   -7.610       0.1911E-2     1.316       0.2028E-2     1.328   
   -7.600       0.1914E-2     1.316       0.2031E-2     1.328   
   -7.590       0.1916E-2     1.316       0.2033E-2     1.329   
   -7.580       0.1919E-2     1.316       0.2036E-2     1.329   
   -7.570       0.1921E-2     1.316       0.2039E-2     1.329   
   -7.560       0.1924E-2     1.316       0.2041E-2     1.329   
   -7.550       0.1926E-2     1.317       0.2044E-2     1.329   
   -7.540       0.1929E-2     1.317       0.2047E-2     1.330   
   -7.530       0.1931E-2     1.317       0.2049E-2     1.330   
   -7.520       0.1934E-2     1.317       0.2052E-2     1.330   
   -7.510       0.1936E-2     1.317       0.2055E-2     1.330   
   -7.500       0.1939E-2     1.318       0.2057E-2     1.330   
   -7.490       0.1941E-2     1.318       0.2060E-2     1.331   
   -7.480       0.1944E-2     1.318       0.2063E-2     1.331   
   -7.470       0.1947E-2     1.318       0.2066E-2     1.331   
   -7.460       0.1949E-2     1.318       0.2068E-2     1.331   
   -7.450       0.1952E-2     1.319       0.2071E-2     1.331   
   -7.440       0.1954E-2     1.319       0.2074E-2     1.332   
   -7.430       0.1957E-2     1.319       0.2077E-2     1.332   
   -7.420       0.1959E-2     1.319       0.2079E-2     1.332   
   -7.410       0.1962E-2     1.319       0.2082E-2     1.332   
   -7.400       0.1965E-2     1.320       0.2085E-2     1.332   
   -7.390       0.1967E-2     1.320       0.2088E-2     1.333   
   -7.380       0.1970E-2     1.320       0.2090E-2     1.333   
   -7.370       0.1972E-2     1.320       0.2093E-2     1.333   
   -7.360       0.1975E-2     1.320       0.2096E-2     1.333   
   -7.350       0.1978E-2     1.321       0.2099E-2     1.334   
   -7.340       0.1980E-2     1.321       0.2102E-2     1.334   
   -7.330       0.1983E-2     1.321       0.2104E-2     1.334   
   -7.320       0.1985E-2     1.321       0.2107E-2     1.334   
   -7.310       0.1988E-2     1.321       0.2110E-2     1.334   
   -7.300       0.1991E-2     1.322       0.2113E-2     1.335   
   -7.290       0.1993E-2     1.322       0.2116E-2     1.335   
   -7.280       0.1996E-2     1.322       0.2118E-2     1.335   
   -7.270       0.1999E-2     1.322       0.2121E-2     1.335   
   -7.260       0.2001E-2     1.322       0.2124E-2     1.335   
   -7.250       0.2004E-2     1.323       0.2127E-2     1.336   
   -7.240       0.2007E-2     1.323       0.2130E-2     1.336   
   -7.230       0.2009E-2     1.323       0.2133E-2     1.336   
   -7.220       0.2012E-2     1.323       0.2135E-2     1.336   
   -7.210       0.2015E-2     1.323       0.2138E-2     1.337   
   -7.200       0.2017E-2     1.324       0.2141E-2     1.337   
   -7.190       0.2020E-2     1.324       0.2144E-2     1.337   
   -7.180       0.2023E-2     1.324       0.2147E-2     1.337   
   -7.170       0.2026E-2     1.324       0.2150E-2     1.337   
   -7.160       0.2028E-2     1.324       0.2153E-2     1.338   
   -7.150       0.2031E-2     1.325       0.2156E-2     1.338   
   -7.140       0.2034E-2     1.325       0.2159E-2     1.338   
   -7.130       0.2037E-2     1.325       0.2162E-2     1.338   
   -7.120       0.2039E-2     1.325       0.2165E-2     1.338   
   -7.110       0.2042E-2     1.325       0.2167E-2     1.339   
   -7.100       0.2045E-2     1.326       0.2170E-2     1.339   
   -7.090       0.2048E-2     1.326       0.2173E-2     1.339   
   -7.080       0.2050E-2     1.326       0.2176E-2     1.339   
   -7.070       0.2053E-2     1.326       0.2179E-2     1.340   
   -7.060       0.2056E-2     1.326       0.2182E-2     1.340   
   -7.050       0.2059E-2     1.327       0.2185E-2     1.340   
   -7.040       0.2062E-2     1.327       0.2188E-2     1.340   
   -7.030       0.2064E-2     1.327       0.2191E-2     1.340   
   -7.020       0.2067E-2     1.327       0.2194E-2     1.341   
   -7.010       0.2070E-2     1.327       0.2197E-2     1.341   
   -7.000       0.2073E-2     1.328       0.2200E-2     1.341   
   -6.990       0.2076E-2     1.328       0.2203E-2     1.341   
   -6.980       0.2078E-2     1.328       0.2206E-2     1.341   
   -6.970       0.2081E-2     1.328       0.2209E-2     1.342   
   -6.960       0.2084E-2     1.328       0.2212E-2     1.342   
   -6.950       0.2087E-2     1.329       0.2215E-2     1.342   
   -6.940       0.2090E-2     1.329       0.2218E-2     1.342   
   -6.930       0.2093E-2     1.329       0.2221E-2     1.343   
   -6.920       0.2096E-2     1.329       0.2224E-2     1.343   
   -6.910       0.2098E-2     1.330       0.2227E-2     1.343   
   -6.900       0.2101E-2     1.330       0.2231E-2     1.343   
   -6.890       0.2104E-2     1.330       0.2234E-2     1.343   
   -6.880       0.2107E-2     1.330       0.2237E-2     1.344   
   -6.870       0.2110E-2     1.330       0.2240E-2     1.344   
   -6.860       0.2113E-2     1.331       0.2243E-2     1.344   
   -6.850       0.2116E-2     1.331       0.2246E-2     1.344   
   -6.840       0.2119E-2     1.331       0.2249E-2     1.345   
   -6.830       0.2122E-2     1.331       0.2252E-2     1.345   
   -6.820       0.2125E-2     1.331       0.2255E-2     1.345   
   -6.810       0.2128E-2     1.332       0.2258E-2     1.345   
   -6.800       0.2130E-2     1.332       0.2262E-2     1.346   
   -6.790       0.2133E-2     1.332       0.2265E-2     1.346   
   -6.780       0.2136E-2     1.332       0.2268E-2     1.346   
   -6.770       0.2139E-2     1.332       0.2271E-2     1.346   
   -6.760       0.2142E-2     1.333       0.2274E-2     1.346   
   -6.750       0.2145E-2     1.333       0.2277E-2     1.347   
   -6.740       0.2148E-2     1.333       0.2281E-2     1.347   
   -6.730       0.2151E-2     1.333       0.2284E-2     1.347   
   -6.720       0.2154E-2     1.334       0.2287E-2     1.347   
   -6.710       0.2157E-2     1.334       0.2290E-2     1.348   
   -6.700       0.2160E-2     1.334       0.2293E-2     1.348   
   -6.690       0.2163E-2     1.334       0.2297E-2     1.348   
   -6.680       0.2166E-2     1.334       0.2300E-2     1.348   
   -6.670       0.2169E-2     1.335       0.2303E-2     1.348   
   -6.660       0.2172E-2     1.335       0.2306E-2     1.349   
   -6.650       0.2175E-2     1.335       0.2310E-2     1.349   
   -6.640       0.2179E-2     1.335       0.2313E-2     1.349   
   -6.630       0.2182E-2     1.336       0.2316E-2     1.349   
   -6.620       0.2185E-2     1.336       0.2319E-2     1.350   
   -6.610       0.2188E-2     1.336       0.2323E-2     1.350   
   -6.600       0.2191E-2     1.336       0.2326E-2     1.350   
   -6.590       0.2194E-2     1.336       0.2329E-2     1.350   
   -6.580       0.2197E-2     1.337       0.2332E-2     1.351   
   -6.570       0.2200E-2     1.337       0.2336E-2     1.351   
   -6.560       0.2203E-2     1.337       0.2339E-2     1.351   
   -6.550       0.2206E-2     1.337       0.2342E-2     1.351   
   -6.540       0.2209E-2     1.337       0.2346E-2     1.352   
   -6.530       0.2213E-2     1.338       0.2349E-2     1.352   
   -6.520       0.2216E-2     1.338       0.2352E-2     1.352   
   -6.510       0.2219E-2     1.338       0.2356E-2     1.352   
   -6.500       0.2222E-2     1.338       0.2359E-2     1.352   
   -6.490       0.2225E-2     1.339       0.2362E-2     1.353   
   -6.480       0.2228E-2     1.339       0.2366E-2     1.353   
   -6.470       0.2232E-2     1.339       0.2369E-2     1.353   
   -6.460       0.2235E-2     1.339       0.2373E-2     1.353   
   -6.450       0.2238E-2     1.339       0.2376E-2     1.354   
   -6.440       0.2241E-2     1.340       0.2379E-2     1.354   
   -6.430       0.2244E-2     1.340       0.2383E-2     1.354   
   -6.420       0.2248E-2     1.340       0.2386E-2     1.354   
   -6.410       0.2251E-2     1.340       0.2390E-2     1.355   
   -6.400       0.2254E-2     1.341       0.2393E-2     1.355   
   -6.390       0.2257E-2     1.341       0.2397E-2     1.355   
   -6.380       0.2260E-2     1.341       0.2400E-2     1.355   
   -6.370       0.2264E-2     1.341       0.2403E-2     1.356   
   -6.360       0.2267E-2     1.342       0.2407E-2     1.356   
   -6.350       0.2270E-2     1.342       0.2410E-2     1.356   
   -6.340       0.2273E-2     1.342       0.2414E-2     1.356   
   -6.330       0.2277E-2     1.342       0.2417E-2     1.357   
   -6.320       0.2280E-2     1.342       0.2421E-2     1.357   
   -6.310       0.2283E-2     1.343       0.2424E-2     1.357   
   -6.300       0.2287E-2     1.343       0.2428E-2     1.357   
   -6.290       0.2290E-2     1.343       0.2431E-2     1.357   
   -6.280       0.2293E-2     1.343       0.2435E-2     1.358   
   -6.270       0.2297E-2     1.344       0.2438E-2     1.358   
   -6.260       0.2300E-2     1.344       0.2442E-2     1.358   
   -6.250       0.2303E-2     1.344       0.2446E-2     1.358   
   -6.240       0.2307E-2     1.344       0.2449E-2     1.359   
   -6.230       0.2310E-2     1.344       0.2453E-2     1.359   
   -6.220       0.2313E-2     1.345       0.2456E-2     1.359   
   -6.210       0.2317E-2     1.345       0.2460E-2     1.359   
   -6.200       0.2320E-2     1.345       0.2463E-2     1.360   
   -6.190       0.2323E-2     1.345       0.2467E-2     1.360   
   -6.180       0.2327E-2     1.346       0.2471E-2     1.360   
   -6.170       0.2330E-2     1.346       0.2474E-2     1.360   
   -6.160       0.2334E-2     1.346       0.2478E-2     1.361   
   -6.150       0.2337E-2     1.346       0.2482E-2     1.361   
   -6.140       0.2341E-2     1.347       0.2485E-2     1.361   
   -6.130       0.2344E-2     1.347       0.2489E-2     1.361   
   -6.120       0.2347E-2     1.347       0.2492E-2     1.362   
   -6.110       0.2351E-2     1.347       0.2496E-2     1.362   
   -6.100       0.2354E-2     1.348       0.2500E-2     1.362   
   -6.090       0.2358E-2     1.348       0.2504E-2     1.362   
   -6.080       0.2361E-2     1.348       0.2507E-2     1.363   
   -6.070       0.2365E-2     1.348       0.2511E-2     1.363   
   -6.060       0.2368E-2     1.348       0.2515E-2     1.363   
   -6.050       0.2372E-2     1.349       0.2518E-2     1.363   
   -6.040       0.2375E-2     1.349       0.2522E-2     1.364   
   -6.030       0.2379E-2     1.349       0.2526E-2     1.364   
   -6.020       0.2382E-2     1.349       0.2530E-2     1.364   
   -6.010       0.2386E-2     1.350       0.2533E-2     1.364   
   -6.000       0.2389E-2     1.350       0.2537E-2     1.365   
   -5.990       0.2393E-2     1.350       0.2541E-2     1.365   
   -5.980       0.2396E-2     1.350       0.2545E-2     1.365   
   -5.970       0.2400E-2     1.351       0.2548E-2     1.365   
   -5.960       0.2404E-2     1.351       0.2552E-2     1.366   
   -5.950       0.2407E-2     1.351       0.2556E-2     1.366   
   -5.940       0.2411E-2     1.351       0.2560E-2     1.366   
   -5.930       0.2414E-2     1.352       0.2564E-2     1.366   
   -5.920       0.2418E-2     1.352       0.2568E-2     1.367   
   -5.910       0.2422E-2     1.352       0.2571E-2     1.367   
   -5.900       0.2425E-2     1.352       0.2575E-2     1.367   
   -5.890       0.2429E-2     1.353       0.2579E-2     1.367   
   -5.880       0.2433E-2     1.353       0.2583E-2     1.368   
   -5.870       0.2436E-2     1.353       0.2587E-2     1.368   
   -5.860       0.2440E-2     1.353       0.2591E-2     1.368   
   -5.850       0.2443E-2     1.354       0.2595E-2     1.369   
   -5.840       0.2447E-2     1.354       0.2599E-2     1.369   
   -5.830       0.2451E-2     1.354       0.2603E-2     1.369   
   -5.820       0.2455E-2     1.354       0.2606E-2     1.369   
   -5.810       0.2458E-2     1.355       0.2610E-2     1.370   
   -5.800       0.2462E-2     1.355       0.2614E-2     1.370   
   -5.790       0.2466E-2     1.355       0.2618E-2     1.370   
   -5.780       0.2469E-2     1.355       0.2622E-2     1.370   
   -5.770       0.2473E-2     1.355       0.2626E-2     1.371   
   -5.760       0.2477E-2     1.356       0.2630E-2     1.371   
   -5.750       0.2481E-2     1.356       0.2634E-2     1.371   
   -5.740       0.2484E-2     1.356       0.2638E-2     1.371   
   -5.730       0.2488E-2     1.356       0.2642E-2     1.372   
   -5.720       0.2492E-2     1.357       0.2646E-2     1.372   
   -5.710       0.2496E-2     1.357       0.2650E-2     1.372   
   -5.700       0.2500E-2     1.357       0.2654E-2     1.372   
   -5.690       0.2503E-2     1.357       0.2658E-2     1.373   
   -5.680       0.2507E-2     1.358       0.2663E-2     1.373   
   -5.670       0.2511E-2     1.358       0.2667E-2     1.373   
   -5.660       0.2515E-2     1.358       0.2671E-2     1.374   
   -5.650       0.2519E-2     1.358       0.2675E-2     1.374   
   -5.640       0.2523E-2     1.359       0.2679E-2     1.374   
   -5.630       0.2527E-2     1.359       0.2683E-2     1.374   
   -5.620       0.2530E-2     1.359       0.2687E-2     1.375   
   -5.610       0.2534E-2     1.359       0.2691E-2     1.375   
   -5.600       0.2538E-2     1.360       0.2695E-2     1.375   
   -5.590       0.2542E-2     1.360       0.2700E-2     1.375   
   -5.580       0.2546E-2     1.360       0.2704E-2     1.376   
   -5.570       0.2550E-2     1.361       0.2708E-2     1.376   
   -5.560       0.2554E-2     1.361       0.2712E-2     1.376   
   -5.550       0.2558E-2     1.361       0.2716E-2     1.376   
   -5.540       0.2562E-2     1.361       0.2721E-2     1.377   
   -5.530       0.2566E-2     1.362       0.2725E-2     1.377   
   -5.520       0.2570E-2     1.362       0.2729E-2     1.377   
   -5.510       0.2574E-2     1.362       0.2733E-2     1.378   
   -5.500       0.2578E-2     1.362       0.2738E-2     1.378   
   -5.490       0.2582E-2     1.363       0.2742E-2     1.378   
   -5.480       0.2586E-2     1.363       0.2746E-2     1.378   
   -5.470       0.2590E-2     1.363       0.2750E-2     1.379   
   -5.460       0.2594E-2     1.363       0.2755E-2     1.379   
   -5.450       0.2598E-2     1.364       0.2759E-2     1.379   
   -5.440       0.2602E-2     1.364       0.2763E-2     1.380   
   -5.430       0.2606E-2     1.364       0.2768E-2     1.380   
   -5.420       0.2610E-2     1.364       0.2772E-2     1.380   
   -5.410       0.2614E-2     1.365       0.2776E-2     1.380   
   -5.400       0.2618E-2     1.365       0.2781E-2     1.381   
   -5.390       0.2623E-2     1.365       0.2785E-2     1.381   
   -5.380       0.2627E-2     1.365       0.2789E-2     1.381   
   -5.370       0.2631E-2     1.366       0.2794E-2     1.381   
   -5.360       0.2635E-2     1.366       0.2798E-2     1.382   
   -5.350       0.2639E-2     1.366       0.2803E-2     1.382   
   -5.340       0.2643E-2     1.366       0.2807E-2     1.382   
   -5.330       0.2647E-2     1.367       0.2811E-2     1.383   
   -5.320       0.2652E-2     1.367       0.2816E-2     1.383   
   -5.310       0.2656E-2     1.367       0.2820E-2     1.383   
   -5.300       0.2660E-2     1.368       0.2825E-2     1.383   
   -5.290       0.2664E-2     1.368       0.2829E-2     1.384   
   -5.280       0.2668E-2     1.368       0.2834E-2     1.384   
   -5.270       0.2673E-2     1.368       0.2838E-2     1.384   
   -5.260       0.2677E-2     1.369       0.2843E-2     1.385   
   -5.250       0.2681E-2     1.369       0.2847E-2     1.385   
   -5.240       0.2686E-2     1.369       0.2852E-2     1.385   
   -5.230       0.2690E-2     1.369       0.2856E-2     1.385   
   -5.220       0.2694E-2     1.370       0.2861E-2     1.386   
   -5.210       0.2698E-2     1.370       0.2866E-2     1.386   
   -5.200       0.2703E-2     1.370       0.2870E-2     1.386   
   -5.190       0.2707E-2     1.370       0.2875E-2     1.387   
   -5.180       0.2711E-2     1.371       0.2879E-2     1.387   
   -5.170       0.2716E-2     1.371       0.2884E-2     1.387   
   -5.160       0.2720E-2     1.371       0.2889E-2     1.387   
   -5.150       0.2724E-2     1.372       0.2893E-2     1.388   
   -5.140       0.2729E-2     1.372       0.2898E-2     1.388   
   -5.130       0.2733E-2     1.372       0.2903E-2     1.388   
   -5.120       0.2738E-2     1.372       0.2907E-2     1.389   
   -5.110       0.2742E-2     1.373       0.2912E-2     1.389   
   -5.100       0.2747E-2     1.373       0.2917E-2     1.389   
   -5.090       0.2751E-2     1.373       0.2921E-2     1.389   
   -5.080       0.2755E-2     1.373       0.2926E-2     1.390   
   -5.070       0.2760E-2     1.374       0.2931E-2     1.390   
   -5.060       0.2764E-2     1.374       0.2936E-2     1.390   
   -5.050       0.2769E-2     1.374       0.2940E-2     1.391   
   -5.040       0.2773E-2     1.375       0.2945E-2     1.391   
   -5.030       0.2778E-2     1.375       0.2950E-2     1.391   
   -5.020       0.2782E-2     1.375       0.2955E-2     1.391   
   -5.010       0.2787E-2     1.375       0.2960E-2     1.392   
   -5.000       0.2792E-2     1.376       0.2964E-2     1.392   
   -4.990       0.2796E-2     1.376       0.2969E-2     1.392   
   -4.980       0.2801E-2     1.376       0.2974E-2     1.393   
   -4.970       0.2805E-2     1.377       0.2979E-2     1.393   
   -4.960       0.2810E-2     1.377       0.2984E-2     1.393   
   -4.950       0.2814E-2     1.377       0.2989E-2     1.394   
   -4.940       0.2819E-2     1.377       0.2994E-2     1.394   
   -4.930       0.2824E-2     1.378       0.2999E-2     1.394   
   -4.920       0.2828E-2     1.378       0.3004E-2     1.394   
   -4.910       0.2833E-2     1.378       0.3009E-2     1.395   
   -4.900       0.2838E-2     1.379       0.3013E-2     1.395   
   -4.890       0.2842E-2     1.379       0.3018E-2     1.395   
   -4.880       0.2847E-2     1.379       0.3023E-2     1.396   
   -4.870       0.2852E-2     1.379       0.3028E-2     1.396   
   -4.860       0.2857E-2     1.380       0.3033E-2     1.396   
   -4.850       0.2861E-2     1.380       0.3038E-2     1.397   
   -4.840       0.2866E-2     1.380       0.3044E-2     1.397   
   -4.830       0.2871E-2     1.381       0.3049E-2     1.397   
   -4.820       0.2876E-2     1.381       0.3054E-2     1.398   
   -4.810       0.2880E-2     1.381       0.3059E-2     1.398   
   -4.800       0.2885E-2     1.381       0.3064E-2     1.398   
   -4.790       0.2890E-2     1.382       0.3069E-2     1.398   
   -4.780       0.2895E-2     1.382       0.3074E-2     1.399   
   -4.770       0.2900E-2     1.382       0.3079E-2     1.399   
   -4.760       0.2904E-2     1.383       0.3084E-2     1.399   
   -4.750       0.2909E-2     1.383       0.3090E-2     1.400   
   -4.740       0.2914E-2     1.383       0.3095E-2     1.400   
   -4.730       0.2919E-2     1.383       0.3100E-2     1.400   
   -4.720       0.2924E-2     1.384       0.3105E-2     1.401   
   -4.710       0.2929E-2     1.384       0.3110E-2     1.401   
   -4.700       0.2934E-2     1.384       0.3116E-2     1.401   
   -4.690       0.2939E-2     1.385       0.3121E-2     1.402   
   -4.680       0.2944E-2     1.385       0.3126E-2     1.402   
   -4.670       0.2949E-2     1.385       0.3131E-2     1.402   
   -4.660       0.2954E-2     1.385       0.3137E-2     1.402   
   -4.650       0.2959E-2     1.386       0.3142E-2     1.403   
   -4.640       0.2964E-2     1.386       0.3147E-2     1.403   
   -4.630       0.2969E-2     1.386       0.3153E-2     1.403   
   -4.620       0.2974E-2     1.387       0.3158E-2     1.404   
   -4.610       0.2979E-2     1.387       0.3163E-2     1.404   
   -4.600       0.2984E-2     1.387       0.3169E-2     1.404   
   -4.590       0.2989E-2     1.388       0.3174E-2     1.405   
   -4.580       0.2994E-2     1.388       0.3179E-2     1.405   
   -4.570       0.2999E-2     1.388       0.3185E-2     1.405   
   -4.560       0.3004E-2     1.388       0.3190E-2     1.406   
   -4.550       0.3009E-2     1.389       0.3196E-2     1.406   
   -4.540       0.3015E-2     1.389       0.3201E-2     1.406   
   -4.530       0.3020E-2     1.389       0.3207E-2     1.407   
   -4.520       0.3025E-2     1.390       0.3212E-2     1.407   
   -4.510       0.3030E-2     1.390       0.3218E-2     1.407   
   -4.500       0.3035E-2     1.390       0.3223E-2     1.408   
   -4.490       0.3041E-2     1.391       0.3229E-2     1.408   
   -4.480       0.3046E-2     1.391       0.3234E-2     1.408   
   -4.470       0.3051E-2     1.391       0.3240E-2     1.409   
   -4.460       0.3056E-2     1.391       0.3245E-2     1.409   
   -4.450       0.3062E-2     1.392       0.3251E-2     1.409   
   -4.440       0.3067E-2     1.392       0.3257E-2     1.409   
   -4.430       0.3072E-2     1.392       0.3262E-2     1.410   
   -4.420       0.3078E-2     1.393       0.3268E-2     1.410   
   -4.410       0.3083E-2     1.393       0.3274E-2     1.410   
   -4.400       0.3088E-2     1.393       0.3279E-2     1.411   
   -4.390       0.3094E-2     1.394       0.3285E-2     1.411   
   -4.380       0.3099E-2     1.394       0.3291E-2     1.411   
   -4.370       0.3104E-2     1.394       0.3296E-2     1.412   
   -4.360       0.3110E-2     1.395       0.3302E-2     1.412   
   -4.350       0.3115E-2     1.395       0.3308E-2     1.412   
   -4.340       0.3121E-2     1.395       0.3314E-2     1.413   
   -4.330       0.3126E-2     1.396       0.3320E-2     1.413   
   -4.320       0.3132E-2     1.396       0.3325E-2     1.413   
   -4.310       0.3137E-2     1.396       0.3331E-2     1.414   
   -4.300       0.3143E-2     1.396       0.3337E-2     1.414   
   -4.290       0.3148E-2     1.397       0.3343E-2     1.414   
   -4.280       0.3154E-2     1.397       0.3349E-2     1.415   
   -4.270       0.3159E-2     1.397       0.3355E-2     1.415   
   -4.260       0.3165E-2     1.398       0.3361E-2     1.415   
   -4.250       0.3171E-2     1.398       0.3367E-2     1.416   
   -4.240       0.3176E-2     1.398       0.3372E-2     1.416   
   -4.230       0.3182E-2     1.399       0.3378E-2     1.416   
   -4.220       0.3187E-2     1.399       0.3384E-2     1.417   
   -4.210       0.3193E-2     1.399       0.3390E-2     1.417   
   -4.200       0.3199E-2     1.400       0.3396E-2     1.417   
   -4.190       0.3204E-2     1.400       0.3402E-2     1.418   
   -4.180       0.3210E-2     1.400       0.3408E-2     1.418   
   -4.170       0.3216E-2     1.401       0.3415E-2     1.418   
   -4.160       0.3222E-2     1.401       0.3421E-2     1.419   
   -4.150       0.3227E-2     1.401       0.3427E-2     1.419   
   -4.140       0.3233E-2     1.402       0.3433E-2     1.420   
   -4.130       0.3239E-2     1.402       0.3439E-2     1.420   
   -4.120       0.3245E-2     1.402       0.3445E-2     1.420   
   -4.110       0.3251E-2     1.403       0.3451E-2     1.421   
   -4.100       0.3256E-2     1.403       0.3457E-2     1.421   
   -4.090       0.3262E-2     1.403       0.3464E-2     1.421   
   -4.080       0.3268E-2     1.403       0.3470E-2     1.422   
   -4.070       0.3274E-2     1.404       0.3476E-2     1.422   
   -4.060       0.3280E-2     1.404       0.3482E-2     1.422   
   -4.050       0.3286E-2     1.404       0.3489E-2     1.423   
   -4.040       0.3292E-2     1.405       0.3495E-2     1.423   
   -4.030       0.3298E-2     1.405       0.3501E-2     1.423   
   -4.020       0.3304E-2     1.405       0.3508E-2     1.424   
   -4.010       0.3310E-2     1.406       0.3514E-2     1.424   
   -4.000       0.3316E-2     1.406       0.3520E-2     1.424   
   -3.990       0.3322E-2     1.406       0.3527E-2     1.425   
   -3.980       0.3328E-2     1.407       0.3533E-2     1.425   
   -3.970       0.3334E-2     1.407       0.3540E-2     1.425   
   -3.960       0.3340E-2     1.407       0.3546E-2     1.426   
   -3.950       0.3346E-2     1.408       0.3553E-2     1.426   
   -3.940       0.3352E-2     1.408       0.3559E-2     1.427   
   -3.930       0.3358E-2     1.408       0.3565E-2     1.427   
   -3.920       0.3365E-2     1.409       0.3572E-2     1.427   
   -3.910       0.3371E-2     1.409       0.3579E-2     1.428   
   -3.900       0.3377E-2     1.409       0.3585E-2     1.428   
   -3.890       0.3383E-2     1.410       0.3592E-2     1.428   
   -3.880       0.3389E-2     1.410       0.3598E-2     1.429   
   -3.870       0.3396E-2     1.410       0.3605E-2     1.429   
   -3.860       0.3402E-2     1.411       0.3612E-2     1.429   
   -3.850       0.3408E-2     1.411       0.3618E-2     1.430   
   -3.840       0.3415E-2     1.412       0.3625E-2     1.430   
   -3.830       0.3421E-2     1.412       0.3632E-2     1.430   
   -3.820       0.3427E-2     1.412       0.3638E-2     1.431   
   -3.810       0.3434E-2     1.413       0.3645E-2     1.431   
   -3.800       0.3440E-2     1.413       0.3652E-2     1.432   
   -3.790       0.3446E-2     1.413       0.3659E-2     1.432   
   -3.780       0.3453E-2     1.414       0.3665E-2     1.432   
   -3.770       0.3459E-2     1.414       0.3672E-2     1.433   
   -3.760       0.3466E-2     1.414       0.3679E-2     1.433   
   -3.750       0.3472E-2     1.415       0.3686E-2     1.433   
   -3.740       0.3479E-2     1.415       0.3693E-2     1.434   
   -3.730       0.3485E-2     1.415       0.3700E-2     1.434   
   -3.720       0.3492E-2     1.416       0.3707E-2     1.434   
   -3.710       0.3498E-2     1.416       0.3714E-2     1.435   
   -3.700       0.3505E-2     1.416       0.3721E-2     1.435   
   -3.690       0.3512E-2     1.417       0.3728E-2     1.436   
   -3.680       0.3518E-2     1.417       0.3735E-2     1.436   
   -3.670       0.3525E-2     1.417       0.3742E-2     1.436   
   -3.660       0.3531E-2     1.418       0.3749E-2     1.437   
   -3.650       0.3538E-2     1.418       0.3756E-2     1.437   
   -3.640       0.3545E-2     1.418       0.3763E-2     1.437   
   -3.630       0.3552E-2     1.419       0.3770E-2     1.438   
   -3.620       0.3558E-2     1.419       0.3777E-2     1.438   
   -3.610       0.3565E-2     1.420       0.3784E-2     1.439   
   -3.600       0.3572E-2     1.420       0.3791E-2     1.439   
   -3.590       0.3579E-2     1.420       0.3799E-2     1.439   
     -3.5800       0.0036       1.4206       0.0038       1.4398
     -3.5700       0.0036       1.4210       0.0038       1.4401
     -3.5600       0.0036       1.4213       0.0038       1.4405
     -3.5500       0.0036       1.4217       0.0038       1.4409
     -3.5400       0.0036       1.4220       0.0038       1.4413
     -3.5300       0.0036       1.4224       0.0038       1.4417
     -3.5200       0.0036       1.4228       0.0038       1.4420
     -3.5100       0.0036       1.4231       0.0039       1.4424
     -3.5000       0.0036       1.4235       0.0039       1.4428
     -3.4900       0.0036       1.4239       0.0039       1.4432
     -3.4800       0.0037       1.4242       0.0039       1.4436
     -3.4700       0.0037       1.4246       0.0039       1.4440
     -3.4600       0.0037       1.4250       0.0039       1.4444
     -3.4500       0.0037       1.4253       0.0039       1.4448
     -3.4400       0.0037       1.4257       0.0039       1.4452
     -3.4300       0.0037       1.4261       0.0039       1.4455
     -3.4200       0.0037       1.4264       0.0039       1.4459
     -3.4100       0.0037       1.4268       0.0039       1.4463
     -3.4000       0.0037       1.4272       0.0039       1.4467
     -3.3900       0.0037       1.4275       0.0039       1.4471
     -3.3800       0.0037       1.4279       0.0040       1.4475
     -3.3700       0.0037       1.4283       0.0040       1.4479
     -3.3600       0.0037       1.4287       0.0040       1.4483
     -3.3500       0.0037       1.4290       0.0040       1.4487
     -3.3400       0.0038       1.4294       0.0040       1.4491
     -3.3300       0.0038       1.4298       0.0040       1.4495
     -3.3200       0.0038       1.4302       0.0040       1.4499
     -3.3100       0.0038       1.4305       0.0040       1.4503
     -3.3000       0.0038       1.4309       0.0040       1.4507
     -3.2900       0.0038       1.4313       0.0040       1.4511
     -3.2800       0.0038       1.4317       0.0040       1.4515
     -3.2700       0.0038       1.4321       0.0040       1.4519
     -3.2600       0.0038       1.4324       0.0040       1.4523
     -3.2500       0.0038       1.4328       0.0041       1.4527
     -3.2400       0.0038       1.4332       0.0041       1.4531
     -3.2300       0.0038       1.4336       0.0041       1.4535
     -3.2200       0.0038       1.4340       0.0041       1.4539
     -3.2100       0.0039       1.4344       0.0041       1.4543
     -3.2000       0.0039       1.4347       0.0041       1.4548
     -3.1900       0.0039       1.4351       0.0041       1.4552
     -3.1800       0.0039       1.4355       0.0041       1.4556
     -3.1700       0.0039       1.4359       0.0041       1.4560
     -3.1600       0.0039       1.4363       0.0041       1.4564
     -3.1500       0.0039       1.4367       0.0041       1.4568
     -3.1400       0.0039       1.4371       0.0041       1.4572
     -3.1300       0.0039       1.4375       0.0042       1.4576
     -3.1200       0.0039       1.4379       0.0042       1.4581
     -3.1100       0.0039       1.4382       0.0042       1.4585
     -3.1000       0.0039       1.4386       0.0042       1.4589
     -3.0900       0.0039       1.4390       0.0042       1.4593
     -3.0800       0.0040       1.4394       0.0042       1.4597
     -3.0700       0.0040       1.4398       0.0042       1.4602
     -3.0600       0.0040       1.4402       0.0042       1.4606
     -3.0500       0.0040       1.4406       0.0042       1.4610
     -3.0400       0.0040       1.4410       0.0042       1.4614
     -3.0300       0.0040       1.4414       0.0042       1.4618
     -3.0200       0.0040       1.4418       0.0042       1.4623
     -3.0100       0.0040       1.4422       0.0043       1.4627
     -3.0000       0.0040       1.4426       0.0043       1.4631
     -2.9900       0.0040       1.4430       0.0043       1.4635
     -2.9800       0.0040       1.4434       0.0043       1.4640
     -2.9700       0.0040       1.4438       0.0043       1.4644
     -2.9600       0.0041       1.4442       0.0043       1.4648
     -2.9500       0.0041       1.4446       0.0043       1.4653
     -2.9400       0.0041       1.4450       0.0043       1.4657
     -2.9300       0.0041       1.4455       0.0043       1.4661
     -2.9200       0.0041       1.4459       0.0043       1.4666
     -2.9100       0.0041       1.4463       0.0043       1.4670
     -2.9000       0.0041       1.4467       0.0044       1.4674
     -2.8900       0.0041       1.4471       0.0044       1.4679
     -2.8800       0.0041       1.4475       0.0044       1.4683
     -2.8700       0.0041       1.4479       0.0044       1.4687
     -2.8600       0.0041       1.4483       0.0044       1.4692
     -2.8500       0.0041       1.4487       0.0044       1.4696
     -2.8400       0.0042       1.4492       0.0044       1.4701
     -2.8300       0.0042       1.4496       0.0044       1.4705
     -2.8200       0.0042       1.4500       0.0044       1.4709
     -2.8100       0.0042       1.4504       0.0044       1.4714
     -2.8000       0.0042       1.4508       0.0044       1.4718
     -2.7900       0.0042       1.4513       0.0045       1.4723
     -2.7800       0.0042       1.4517       0.0045       1.4727
     -2.7700       0.0042       1.4521       0.0045       1.4732
     -2.7600       0.0042       1.4525       0.0045       1.4736
     -2.7500       0.0042       1.4529       0.0045       1.4741
     -2.7400       0.0042       1.4534       0.0045       1.4745
     -2.7300       0.0043       1.4538       0.0045       1.4750
     -2.7200       0.0043       1.4542       0.0045       1.4754
     -2.7100       0.0043       1.4546       0.0045       1.4759
     -2.7000       0.0043       1.4551       0.0045       1.4763
     -2.6900       0.0043       1.4555       0.0046       1.4768
     -2.6800       0.0043       1.4559       0.0046       1.4772
     -2.6700       0.0043       1.4564       0.0046       1.4777
     -2.6600       0.0043       1.4568       0.0046       1.4781
     -2.6500       0.0043       1.4572       0.0046       1.4786
     -2.6400       0.0043       1.4577       0.0046       1.4791
     -2.6300       0.0043       1.4581       0.0046       1.4795
     -2.6200       0.0044       1.4585       0.0046       1.4800
     -2.6100       0.0044       1.4590       0.0046       1.4804
     -2.6000       0.0044       1.4594       0.0046       1.4809
     -2.5900       0.0044       1.4598       0.0047       1.4814
     -2.5800       0.0044       1.4603       0.0047       1.4818
     -2.5700       0.0044       1.4607       0.0047       1.4823
     -2.5600       0.0044       1.4612       0.0047       1.4828
     -2.5500       0.0044       1.4616       0.0047       1.4832
     -2.5400       0.0044       1.4620       0.0047       1.4837
     -2.5300       0.0044       1.4625       0.0047       1.4842
     -2.5200       0.0045       1.4629       0.0047       1.4847
     -2.5100       0.0045       1.4634       0.0047       1.4851
     -2.5000       0.0045       1.4638       0.0047       1.4856
     -2.4900       0.0045       1.4643       0.0048       1.4861
     -2.4800       0.0045       1.4647       0.0048       1.4865
     -2.4700       0.0045       1.4652       0.0048       1.4870
     -2.4600       0.0045       1.4656       0.0048       1.4875
     -2.4500       0.0045       1.4661       0.0048       1.4880
     -2.4400       0.0045       1.4665       0.0048       1.4885
     -2.4300       0.0045       1.4670       0.0048       1.4889
     -2.4200       0.0046       1.4674       0.0048       1.4894
     -2.4100       0.0046       1.4679       0.0048       1.4899
     -2.4000       0.0046       1.4683       0.0048       1.4904
     -2.3900       0.0046       1.4688       0.0049       1.4909
     -2.3800       0.0046       1.4693       0.0049       1.4914
     -2.3700       0.0046       1.4697       0.0049       1.4919
     -2.3600       0.0046       1.4702       0.0049       1.4923
     -2.3500       0.0046       1.4706       0.0049       1.4928
     -2.3400       0.0046       1.4711       0.0049       1.4933
     -2.3300       0.0046       1.4716       0.0049       1.4938
     -2.3200       0.0047       1.4720       0.0049       1.4943
     -2.3100       0.0047       1.4725       0.0049       1.4948
     -2.3000       0.0047       1.4730       0.0050       1.4953
     -2.2900       0.0047       1.4734       0.0050       1.4958
     -2.2800       0.0047       1.4739       0.0050       1.4963
     -2.2700       0.0047       1.4744       0.0050       1.4968
     -2.2600       0.0047       1.4748       0.0050       1.4973
     -2.2500       0.0047       1.4753       0.0050       1.4978
     -2.2400       0.0047       1.4758       0.0050       1.4983
     -2.2300       0.0048       1.4763       0.0050       1.4988
     -2.2200       0.0048       1.4767       0.0050       1.4993
     -2.2100       0.0048       1.4772       0.0051       1.4998
     -2.2000       0.0048       1.4777       0.0051       1.5003
     -2.1900       0.0048       1.4782       0.0051       1.5008
     -2.1800       0.0048       1.4786       0.0051       1.5013
     -2.1700       0.0048       1.4791       0.0051       1.5018
     -2.1600       0.0048       1.4796       0.0051       1.5023
     -2.1500       0.0048       1.4801       0.0051       1.5029
     -2.1400       0.0049       1.4806       0.0051       1.5034
     -2.1300       0.0049       1.4811       0.0052       1.5039
     -2.1200       0.0049       1.4816       0.0052       1.5044
     -2.1100       0.0049       1.4820       0.0052       1.5049
     -2.1000       0.0049       1.4825       0.0052       1.5054
     -2.0900       0.0049       1.4830       0.0052       1.5060
     -2.0800       0.0049       1.4835       0.0052       1.5065
     -2.0700       0.0049       1.4840       0.0052       1.5070
     -2.0600       0.0049       1.4845       0.0052       1.5075
     -2.0500       0.0050       1.4850       0.0052       1.5080
     -2.0400       0.0050       1.4855       0.0053       1.5086
     -2.0300       0.0050       1.4860       0.0053       1.5091
     -2.0200       0.0050       1.4865       0.0053       1.5096
     -2.0100       0.0050       1.4870       0.0053       1.5101
     -2.0000       0.0050       1.4875       0.0053       1.5107
     -1.9900       0.0050       1.4880       0.0053       1.5112
     -1.9800       0.0050       1.4885       0.0053       1.5117
     -1.9700       0.0050       1.4890       0.0053       1.5123
     -1.9600       0.0051       1.4895       0.0054       1.5128
     -1.9500       0.0051       1.4900       0.0054       1.5134
     -1.9400       0.0051       1.4905       0.0054       1.5139
     -1.9300       0.0051       1.4910       0.0054       1.5144
     -1.9200       0.0051       1.4915       0.0054       1.5150
     -1.9100       0.0051       1.4920       0.0054       1.5155
     -1.9000       0.0051       1.4926       0.0054       1.5161
     -1.8900       0.0051       1.4931       0.0055       1.5166
     -1.8800       0.0052       1.4936       0.0055       1.5171
     -1.8700       0.0052       1.4941       0.0055       1.5177
     -1.8600       0.0052       1.4946       0.0055       1.5182
     -1.8500       0.0052       1.4951       0.0055       1.5188
     -1.8400       0.0052       1.4957       0.0055       1.5193
     -1.8300       0.0052       1.4962       0.0055       1.5199
     -1.8200       0.0052       1.4967       0.0055       1.5204
     -1.8100       0.0052       1.4972       0.0056       1.5210
     -1.8000       0.0053       1.4977       0.0056       1.5216
     -1.7900       0.0053       1.4983       0.0056       1.5221
     -1.7800       0.0053       1.4988       0.0056       1.5227
     -1.7700       0.0053       1.4993       0.0056       1.5232
     -1.7600       0.0053       1.4999       0.0056       1.5238
     -1.7500       0.0053       1.5004       0.0056       1.5244
     -1.7400       0.0053       1.5009       0.0057       1.5249
     -1.7300       0.0054       1.5015       0.0057       1.5255
     -1.7200       0.0054       1.5020       0.0057       1.5261
     -1.7100       0.0054       1.5025       0.0057       1.5266
     -1.7000       0.0054       1.5031       0.0057       1.5272
     -1.6900       0.0054       1.5036       0.0057       1.5278
     -1.6800       0.0054       1.5041       0.0057       1.5283
     -1.6700       0.0054       1.5047       0.0058       1.5289
     -1.6600       0.0054       1.5052       0.0058       1.5295
     -1.6500       0.0055       1.5058       0.0058       1.5301
     -1.6400       0.0055       1.5063       0.0058       1.5306
     -1.6300       0.0055       1.5069       0.0058       1.5312
     -1.6200       0.0055       1.5074       0.0058       1.5318
     -1.6100       0.0055       1.5080       0.0058       1.5324
     -1.6000       0.0055       1.5085       0.0059       1.5330
     -1.5900       0.0055       1.5091       0.0059       1.5336
     -1.5800       0.0056       1.5096       0.0059       1.5341
     -1.5700       0.0056       1.5102       0.0059       1.5347
     -1.5600       0.0056       1.5107       0.0059       1.5353
     -1.5500       0.0056       1.5113       0.0059       1.5359
     -1.5400       0.0056       1.5119       0.0059       1.5365
     -1.5300       0.0056       1.5124       0.0060       1.5371
     -1.5200       0.0056       1.5130       0.0060       1.5377
     -1.5100       0.0057       1.5136       0.0060       1.5383
     -1.5000       0.0057       1.5141       0.0060       1.5389
     -1.4900       0.0057       1.5147       0.0060       1.5395
     -1.4800       0.0057       1.5153       0.0060       1.5401
     -1.4700       0.0057       1.5158       0.0060       1.5407
     -1.4600       0.0057       1.5164       0.0061       1.5413
     -1.4500       0.0057       1.5170       0.0061       1.5419
     -1.4400       0.0058       1.5175       0.0061       1.5425
     -1.4300       0.0058       1.5181       0.0061       1.5431
     -1.4200       0.0058       1.5187       0.0061       1.5437
     -1.4100       0.0058       1.5193       0.0061       1.5444
     -1.4000       0.0058       1.5199       0.0062       1.5450
     -1.3900       0.0058       1.5204       0.0062       1.5456
     -1.3800       0.0058       1.5210       0.0062       1.5462
     -1.3700       0.0059       1.5216       0.0062       1.5468
     -1.3600       0.0059       1.5222       0.0062       1.5474
     -1.3500       0.0059       1.5228       0.0062       1.5481
     -1.3400       0.0059       1.5234       0.0063       1.5487
     -1.3300       0.0059       1.5240       0.0063       1.5493
     -1.3200       0.0059       1.5246       0.0063       1.5499
     -1.3100       0.0060       1.5252       0.0063       1.5506
     -1.3000       0.0060       1.5258       0.0063       1.5512
     -1.2900       0.0060       1.5263       0.0063       1.5518
     -1.2800       0.0060       1.5269       0.0064       1.5525
     -1.2700       0.0060       1.5275       0.0064       1.5531
     -1.2600       0.0060       1.5282       0.0064       1.5537
     -1.2500       0.0061       1.5288       0.0064       1.5544
     -1.2400       0.0061       1.5294       0.0064       1.5550
     -1.2300       0.0061       1.5300       0.0064       1.5557
     -1.2200       0.0061       1.5306       0.0065       1.5563
     -1.2100       0.0061       1.5312       0.0065       1.5570
     -1.2000       0.0061       1.5318       0.0065       1.5576
     -1.1900       0.0062       1.5324       0.0065       1.5583
     -1.1800       0.0062       1.5330       0.0065       1.5589
     -1.1700       0.0062       1.5336       0.0065       1.5596
     -1.1600       0.0062       1.5343       0.0066       1.5602
     -1.1500       0.0062       1.5349       0.0066       1.5609
     -1.1400       0.0062       1.5355       0.0066       1.5615
     -1.1300       0.0063       1.5361       0.0066       1.5622
     -1.1200       0.0063       1.5368       0.0066       1.5629
     -1.1100       0.0063       1.5374       0.0067       1.5635
     -1.1000       0.0063       1.5380       0.0067       1.5642
     -1.0900       0.0063       1.5386       0.0067       1.5649
     -1.0800       0.0063       1.5393       0.0067       1.5655
     -1.0700       0.0064       1.5399       0.0067       1.5662
     -1.0600       0.0064       1.5406       0.0067       1.5669
     -1.0500       0.0064       1.5412       0.0068       1.5675
     -1.0400       0.0064       1.5418       0.0068       1.5682
     -1.0300       0.0064       1.5425       0.0068       1.5689
     -1.0200       0.0064       1.5431       0.0068       1.5696
     -1.0100       0.0065       1.5438       0.0068       1.5703
     -1.0000       0.0065       1.5444       0.0069       1.5709
     -0.9900       0.0065       1.5451       0.0069       1.5716
     -0.9800       0.0065       1.5457       0.0069       1.5723
     -0.9700       0.0065       1.5464       0.0069       1.5730
     -0.9600       0.0066       1.5470       0.0069       1.5737
     -0.9500       0.0066       1.5477       0.0070       1.5744
     -0.9400       0.0066       1.5483       0.0070       1.5751
     -0.9300       0.0066       1.5490       0.0070       1.5758
     -0.9200       0.0066       1.5496       0.0070       1.5765
     -0.9100       0.0066       1.5503       0.0070       1.5772
     -0.9000       0.0067       1.5510       0.0070       1.5779
     -0.8900       0.0067       1.5516       0.0071       1.5786
     -0.8800       0.0067       1.5523       0.0071       1.5793
     -0.8700       0.0067       1.5530       0.0071       1.5800
     -0.8600       0.0067       1.5537       0.0071       1.5807
     -0.8500       0.0068       1.5543       0.0071       1.5814
     -0.8400       0.0068       1.5550       0.0072       1.5822
     -0.8300       0.0068       1.5557       0.0072       1.5829
     -0.8200       0.0068       1.5564       0.0072       1.5836
     -0.8100       0.0068       1.5571       0.0072       1.5843
     -0.8000       0.0069       1.5577       0.0073       1.5850
     -0.7900       0.0069       1.5584       0.0073       1.5858
     -0.7800       0.0069       1.5591       0.0073       1.5865
     -0.7700       0.0069       1.5598       0.0073       1.5872
     -0.7600       0.0069       1.5605       0.0073       1.5880
     -0.7500       0.0070       1.5612       0.0074       1.5887
     -0.7400       0.0070       1.5619       0.0074       1.5894
     -0.7300       0.0070       1.5626       0.0074       1.5902
     -0.7200       0.0070       1.5633       0.0074       1.5909
     -0.7100       0.0070       1.5640       0.0074       1.5916
     -0.7000       0.0071       1.5647       0.0075       1.5924
     -0.6900       0.0071       1.5654       0.0075       1.5931
     -0.6800       0.0071       1.5661       0.0075       1.5939
     -0.6700       0.0071       1.5668       0.0075       1.5946
     -0.6600       0.0072       1.5675       0.0076       1.5954
     -0.6500       0.0072       1.5683       0.0076       1.5962
     -0.6400       0.0072       1.5690       0.0076       1.5969
     -0.6300       0.0072       1.5697       0.0076       1.5977
     -0.6200       0.0072       1.5704       0.0076       1.5984
     -0.6100       0.0073       1.5711       0.0077       1.5992
     -0.6000       0.0073       1.5719       0.0077       1.6000
     -0.5900       0.0073       1.5726       0.0077       1.6007
     -0.5800       0.0073       1.5733       0.0077       1.6015
     -0.5700       0.0073       1.5741       0.0078       1.6023
     -0.5600       0.0074       1.5748       0.0078       1.6031
     -0.5500       0.0074       1.5755       0.0078       1.6038
     -0.5400       0.0074       1.5763       0.0078       1.6046
     -0.5300       0.0074       1.5770       0.0079       1.6054
     -0.5200       0.0075       1.5778       0.0079       1.6062
     -0.5100       0.0075       1.5785       0.0079       1.6070
     -0.5000       0.0075       1.5793       0.0079       1.6078
     -0.4900       0.0075       1.5800       0.0080       1.6086
     -0.4800       0.0076       1.5808       0.0080       1.6094
     -0.4700       0.0076       1.5815       0.0080       1.6102
     -0.4600       0.0076       1.5823       0.0080       1.6110
     -0.4500       0.0076       1.5830       0.0081       1.6118
     -0.4400       0.0076       1.5838       0.0081       1.6126
     -0.4300       0.0077       1.5846       0.0081       1.6134
     -0.4200       0.0077       1.5853       0.0081       1.6142
     -0.4100       0.0077       1.5861       0.0082       1.6150
     -0.4000       0.0077       1.5869       0.0082       1.6158
     -0.3900       0.0078       1.5876       0.0082       1.6166
     -0.3800       0.0078       1.5884       0.0082       1.6175
     -0.3700       0.0078       1.5892       0.0083       1.6183
     -0.3600       0.0078       1.5900       0.0083       1.6191
     -0.3500       0.0079       1.5908       0.0083       1.6199
     -0.3400       0.0079       1.5916       0.0083       1.6208
     -0.3300       0.0079       1.5924       0.0084       1.6216
     -0.3200       0.0079       1.5931       0.0084       1.6224
     -0.3100       0.0080       1.5939       0.0084       1.6233
     -0.3000       0.0080       1.5947       0.0084       1.6241
     -0.2900       0.0080       1.5955       0.0085       1.6250
     -0.2800       0.0080       1.5963       0.0085       1.6258
     -0.2700       0.0081       1.5971       0.0085       1.6267
     -0.2600       0.0081       1.5980       0.0085       1.6275
     -0.2500       0.0081       1.5988       0.0086       1.6284
     -0.2400       0.0082       1.5996       0.0086       1.6292
     -0.2300       0.0082       1.6004       0.0086       1.6301
     -0.2200       0.0082       1.6012       0.0087       1.6310
     -0.2100       0.0082       1.6020       0.0087       1.6318
     -0.2000       0.0083       1.6029       0.0087       1.6327
     -0.1900       0.0083       1.6037       0.0087       1.6336
     -0.1800       0.0083       1.6045       0.0088       1.6344
     -0.1700       0.0083       1.6053       0.0088       1.6353
     -0.1600       0.0084       1.6062       0.0088       1.6362
     -0.1500       0.0084       1.6070       0.0089       1.6371
     -0.1400       0.0084       1.6079       0.0089       1.6380
     -0.1300       0.0085       1.6087       0.0089       1.6389
     -0.1200       0.0085       1.6095       0.0089       1.6398
     -0.1100       0.0085       1.6104       0.0090       1.6407
     -0.1000       0.0085       1.6112       0.0090       1.6416
     -0.0900       0.0086       1.6121       0.0090       1.6425
     -0.0800       0.0086       1.6130       0.0091       1.6434
     -0.0700       0.0086       1.6138       0.0091       1.6443
     -0.0600       0.0087       1.6147       0.0091       1.6452
     -0.0500       0.0087       1.6156       0.0092       1.6461
     -0.0400       0.0087       1.6164       0.0092       1.6470
     -0.0300       0.0087       1.6173       0.0092       1.6479
     -0.0200       0.0088       1.6182       0.0093       1.6489
     -0.0100       0.0088       1.6190       0.0093       1.6498
      0.0000       0.0088       1.6199       0.0093       1.6507
      0.0100       0.0089       1.6208       0.0093       1.6516
      0.0200       0.0089       1.6217       0.0094       1.6526
      0.0300       0.0089       1.6226       0.0094       1.6535
      0.0400       0.0090       1.6235       0.0094       1.6545
      0.0500       0.0090       1.6244       0.0095       1.6554
      0.0600       0.0090       1.6253       0.0095       1.6564
      0.0700       0.0090       1.6262       0.0095       1.6573
      0.0800       0.0091       1.6271       0.0096       1.6583
      0.0900       0.0091       1.6280       0.0096       1.6592
      0.1000       0.0091       1.6289       0.0096       1.6602
      0.1100       0.0092       1.6298       0.0097       1.6611
      0.1200       0.0092       1.6307       0.0097       1.6621
      0.1300       0.0092       1.6317       0.0097       1.6631
      0.1400       0.0093       1.6326       0.0098       1.6641
      0.1500       0.0093       1.6335       0.0098       1.6650
      0.1600       0.0093       1.6344       0.0098       1.6660
      0.1700       0.0094       1.6354       0.0099       1.6670
      0.1800       0.0094       1.6363       0.0099       1.6680
      0.1900       0.0094       1.6373       0.0100       1.6690
      0.2000       0.0095       1.6382       0.0100       1.6700
      0.2100       0.0095       1.6392       0.0100       1.6710
      0.2200       0.0095       1.6401       0.0101       1.6720
      0.2300       0.0096       1.6411       0.0101       1.6730
      0.2400       0.0096       1.6420       0.0101       1.6740
      0.2500       0.0096       1.6430       0.0102       1.6750
      0.2600       0.0097       1.6440       0.0102       1.6760
      0.2700       0.0097       1.6449       0.0102       1.6771
      0.2800       0.0098       1.6459       0.0103       1.6781
      0.2900       0.0098       1.6469       0.0103       1.6791
      0.3000       0.0098       1.6479       0.0104       1.6802
      0.3100       0.0099       1.6488       0.0104       1.6812
      0.3200       0.0099       1.6498       0.0104       1.6822
      0.3300       0.0099       1.6508       0.0105       1.6833
      0.3400       0.0100       1.6518       0.0105       1.6843
     0.35000      0.01001      1.65281      0.01055      1.68538
     0.36000      0.01005      1.65381      0.01059      1.68643
     0.37000      0.01009      1.65481      0.01063      1.68749
     0.38000      0.01012      1.65582      0.01067      1.68856
     0.39000      0.01016      1.65684      0.01071      1.68962
     0.40000      0.01020      1.65785      0.01075      1.69070
     0.41000      0.01024      1.65888      0.01079      1.69177
     0.42000      0.01028      1.65990      0.01083      1.69285
     0.43000      0.01032      1.66093      0.01087      1.69394
     0.44000      0.01036      1.66196      0.01091      1.69502
     0.45000      0.01040      1.66300      0.01095      1.69612
     0.46000      0.01044      1.66404      0.01100      1.69721
     0.47000      0.01048      1.66508      0.01104      1.69831
     0.48000      0.01052      1.66613      0.01108      1.69942
     0.49000      0.01056      1.66719      0.01112      1.70053
     0.50000      0.01060      1.66824      0.01117      1.70164
     0.51000      0.01064      1.66930      0.01121      1.70276
     0.52000      0.01068      1.67037      0.01125      1.70388
     0.53000      0.01072      1.67144      0.01130      1.70501
     0.54000      0.01076      1.67251      0.01134      1.70614
     0.55000      0.01081      1.67359      0.01138      1.70727
     0.56000      0.01085      1.67467      0.01143      1.70841
     0.57000      0.01089      1.67576      0.01147      1.70956
     0.58000      0.01094      1.67685      0.01152      1.71071
     0.59000      0.01098      1.67794      0.01156      1.71186
     0.60000      0.01102      1.67904      0.01161      1.71302
     0.61000      0.01107      1.68015      0.01166      1.71418
     0.62000      0.01111      1.68125      0.01170      1.71535
     0.63000      0.01116      1.68237      0.01175      1.71652
     0.64000      0.01120      1.68348      0.01180      1.71769
     0.65000      0.01125      1.68460      0.01184      1.71887
     0.66000      0.01129      1.68573      0.01189      1.72006
     0.67000      0.01134      1.68686      0.01194      1.72125
     0.68000      0.01138      1.68799      0.01199      1.72245
     0.69000      0.01143      1.68913      0.01203      1.72365
     0.70000      0.01148      1.69028      0.01208      1.72485
     0.71000      0.01152      1.69143      0.01213      1.72606
     0.72000      0.01157      1.69258      0.01218      1.72727
     0.73000      0.01162      1.69374      0.01223      1.72849
     0.74000      0.01167      1.69490      0.01228      1.72972
     0.75000      0.01171      1.69607      0.01233      1.73095
     0.76000      0.01176      1.69724      0.01238      1.73218
     0.77000      0.01181      1.69842      0.01244      1.73342
     0.78000      0.01186      1.69960      0.01249      1.73467
     0.79000      0.01191      1.70079      0.01254      1.73592
     0.80000      0.01196      1.70198      0.01259      1.73717
     0.81000      0.01201      1.70318      0.01264      1.73843
     0.82000      0.01206      1.70438      0.01270      1.73970
     0.83000      0.01211      1.70559      0.01275      1.74097
     0.84000      0.01216      1.70680      0.01280      1.74225
     0.85000      0.01222      1.70802      0.01286      1.74353
     0.86000      0.01227      1.70924      0.01291      1.74482
     0.87000      0.01232      1.71047      0.01297      1.74611
     0.88000      0.01237      1.71171      0.01302      1.74741
     0.89000      0.01243      1.71294      0.01308      1.74871
     0.90000      0.01248      1.71419      0.01314      1.75002
     0.91000      0.01254      1.71544      0.01319      1.75134
     0.92000      0.01259      1.71669      0.01325      1.75266
     0.93000      0.01264      1.71795      0.01331      1.75398
     0.94000      0.01270      1.71922      0.01337      1.75532
     0.95000      0.01276      1.72049      0.01342      1.75665
     0.96000      0.01281      1.72177      0.01348      1.75800
     0.97000      0.01287      1.72305      0.01354      1.75935
     0.98000      0.01293      1.72434      0.01360      1.76070
     0.99000      0.01298      1.72563      0.01366      1.76206
     1.00000      0.01304      1.72693      0.01372      1.76343
     1.01000      0.01310      1.72824      0.01378      1.76481
     1.02000      0.01316      1.72955      0.01384      1.76618
     1.03000      0.01322      1.73087      0.01391      1.76757
     1.04000      0.01328      1.73219      0.01397      1.76896
     1.05000      0.01334      1.73352      0.01403      1.77036
     1.06000      0.01340      1.73485      0.01409      1.77177
     1.07000      0.01346      1.73619      0.01416      1.77318
     1.08000      0.01352      1.73754      0.01422      1.77459
     1.09000      0.01358      1.73890      0.01429      1.77602
     1.10000      0.01364      1.74025      0.01435      1.77745
     1.11000      0.01370      1.74162      0.01442      1.77889
     1.12000      0.01377      1.74299      0.01448      1.78033
     1.13000      0.01383      1.74437      0.01455      1.78178
     1.14000      0.01390      1.74576      0.01462      1.78324
     1.15000      0.01396      1.74715      0.01469      1.78470
     1.16000      0.01403      1.74854      0.01475      1.78617
     1.17000      0.01409      1.74995      0.01482      1.78765
     1.18000      0.01416      1.75136      0.01489      1.78913
     1.19000      0.01422      1.75278      0.01496      1.79062
     1.20000      0.01429      1.75420      0.01503      1.79212
     1.21000      0.01436      1.75563      0.01510      1.79362
     1.22000      0.01443      1.75707      0.01517      1.79514
     1.23000      0.01450      1.75851      0.01525      1.79665
     1.24000      0.01457      1.75996      0.01532      1.79818
     1.25000      0.01463      1.76142      0.01539      1.79971
     1.26000      0.01471      1.76289      0.01547      1.80126
     1.27000      0.01478      1.76436      0.01554      1.80280
     1.28000      0.01485      1.76584      0.01562      1.80436
     1.29000      0.01492      1.76733      0.01569      1.80592
     1.30000      0.01499      1.76882      0.01577      1.80749
     1.31000      0.01507      1.77032      0.01585      1.80907
     1.32000      0.01514      1.77183      0.01592      1.81066
     1.33000      0.01521      1.77334      0.01600      1.81225
     1.34000      0.01529      1.77487      0.01608      1.81385
     1.35000      0.01537      1.77640      0.01616      1.81546
     1.36000      0.01544      1.77794      0.01624      1.81708
     1.37000      0.01552      1.77948      0.01632      1.81871
     1.38000      0.01560      1.78104      0.01640      1.82034
     1.39000      0.01567      1.78260      0.01648      1.82198
     1.40000      0.01575      1.78417      0.01657      1.82363
     1.41000      0.01583      1.78574      0.01665      1.82529
     1.42000      0.01591      1.78733      0.01673      1.82696
     1.43000      0.01599      1.78892      0.01682      1.82863
     1.44000      0.01608      1.79052      0.01691      1.83032
     1.45000      0.01616      1.79213      0.01699      1.83201
     1.46000      0.01624      1.79375      0.01708      1.83371
     1.47000      0.01633      1.79538      0.01717      1.83542
     1.48000      0.01641      1.79701      0.01726      1.83714
     1.49000      0.01650      1.79865      0.01735      1.83887
     1.50000      0.01658      1.80030      0.01744      1.84060
     1.51000      0.01667      1.80196      0.01753      1.84235
     1.52000      0.01675      1.80363      0.01762      1.84410
     1.53000      0.01684      1.80531      0.01771      1.84587
     1.54000      0.01693      1.80700      0.01780      1.84764
     1.55000      0.01702      1.80869      0.01790      1.84942
     1.56000      0.01711      1.81040      0.01799      1.85121
     1.57000      0.01720      1.81211      0.01809      1.85302
     1.58000      0.01730      1.81383      0.01819      1.85483
     1.59000      0.01739      1.81556      0.01828      1.85665
     1.60000      0.01748      1.81730      0.01838      1.85848
     1.61000      0.01758      1.81905      0.01848      1.86032
     1.62000      0.01767      1.82081      0.01858      1.86217
     1.63000      0.01777      1.82258      0.01868      1.86403
     1.64000      0.01787      1.82436      0.01879      1.86590
     1.65000      0.01796      1.82615      0.01889      1.86778
     1.66000      0.01806      1.82795      0.01899      1.86967
     1.67000      0.01816      1.82976      0.01910      1.87157
     1.68000      0.01826      1.83157      0.01920      1.87348
     1.69000      0.01836      1.83340      0.01931      1.87541
     1.70000      0.01847      1.83524      0.01942      1.87734
     1.71000      0.01857      1.83709      0.01953      1.87928
     1.72000      0.01868      1.83895      0.01964      1.88124
     1.73000      0.01878      1.84082      0.01975      1.88320
     1.74000      0.01889      1.84270      0.01986      1.88518
     1.75000      0.01900      1.84459      0.01997      1.88717
     1.76000      0.01910      1.84649      0.02009      1.88917
     1.77000      0.01921      1.84840      0.02020      1.89118
     1.78000      0.01932      1.85033      0.02032      1.89320
     1.79000      0.01944      1.85226      0.02044      1.89524
     1.80000      0.01955      1.85421      0.02056      1.89728
     1.81000      0.01966      1.85616      0.02068      1.89934
     1.82000      0.01978      1.85813      0.02080      1.90141
     1.83000      0.01989      1.86011      0.02092      1.90349
     1.84000      0.02001      1.86210      0.02104      1.90559
     1.85000      0.02013      1.86411      0.02117      1.90769
     1.86000      0.02025      1.86612      0.02129      1.90981
     1.87000      0.02037      1.86815      0.02142      1.91194
     1.88000      0.02049      1.87019      0.02155      1.91409
     1.89000      0.02061      1.87224      0.02168      1.91625
     1.90000      0.02074      1.87430      0.02181      1.91842
     1.91000      0.02086      1.87638      0.02194      1.92060
     1.92000      0.02099      1.87846      0.02208      1.92280
     1.93000      0.02112      1.88057      0.02221      1.92500
     1.94000      0.02125      1.88268      0.02235      1.92723
     1.95000      0.02138      1.88481      0.02249      1.92947
     1.96000      0.02151      1.88695      0.02263      1.93172
     1.97000      0.02164      1.88910      0.02277      1.93398
     1.98000      0.02178      1.89126      0.02291      1.93626
     1.99000      0.02191      1.89344      0.02305      1.93855
     2.00000      0.02205      1.89564      0.02320      1.94086
     2.01000      0.02219      1.89784      0.02334      1.94318
     2.02000      0.02233      1.90007      0.02349      1.94552
     2.03000      0.02247      1.90230      0.02364      1.94787
     2.04000      0.02261      1.90455      0.02379      1.95024
     2.05000      0.02276      1.90681      0.02395      1.95262
     2.06000      0.02290      1.90909      0.02410      1.95501
     2.07000      0.02305      1.91138      0.02426      1.95743
     2.08000      0.02320      1.91369      0.02441      1.95985
     2.09000      0.02335      1.91601      0.02457      1.96230
     2.10000      0.02350      1.91835      0.02474      1.96476
     2.11000      0.02366      1.92070      0.02490      1.96723
     2.12000      0.02381      1.92307      0.02506      1.96973
     2.13000      0.02397      1.92545      0.02523      1.97223
     2.14000      0.02413      1.92785      0.02540      1.97476
     2.15000      0.02429      1.93027      0.02557      1.97730
     2.16000      0.02445      1.93270      0.02574      1.97986
     2.17000      0.02462      1.93515      0.02592      1.98244
     2.18000      0.02478      1.93761      0.02609      1.98503
     2.19000      0.02495      1.94009      0.02627      1.98764
     2.20000      0.02512      1.94259      0.02645      1.99027
     2.21000      0.02529      1.94510      0.02663      1.99292
     2.22000      0.02547      1.94763      0.02682      1.99558
     2.23000      0.02564      1.95018      0.02701      1.99827
     2.24000      0.02582      1.95275      0.02719      2.00097
     2.25000      0.02600      1.95533      0.02739      2.00369
     2.26000      0.02618      1.95794      0.02758      2.00643
     2.27000      0.02637      1.96056      0.02777      2.00919
     2.28000      0.02655      1.96320      0.02797      2.01197
     2.29000      0.02674      1.96585      0.02817      2.01477
     2.30000      0.02693      1.96853      0.02837      2.01759
     2.31000      0.02712      1.97122      0.02858      2.02043
     2.32000      0.02732      1.97394      0.02879      2.02329
     2.33000      0.02752      1.97667      0.02900      2.02617
     2.34000      0.02772      1.97943      0.02921      2.02907
     2.35000      0.02792      1.98220      0.02942      2.03200
     2.36000      0.02812      1.98499      0.02964      2.03494
     2.37000      0.02833      1.98781      0.02986      2.03791
     2.38000      0.02854      1.99064      0.03009      2.04090
     2.39000      0.02875      1.99350      0.03031      2.04391
     2.40000      0.02896      1.99638      0.03054      2.04694
     2.41000      0.02918      1.99927      0.03077      2.04999
     2.42000      0.02940      2.00219      0.03101      2.05307
     2.43000      0.02962      2.00514      0.03124      2.05618
     2.44000      0.02985      2.00810      0.03148      2.05930
     2.45000      0.03008      2.01109      0.03173      2.06245
     2.46000      0.03031      2.01410      0.03197      2.06563
     2.47000      0.03054      2.01713      0.03222      2.06883
     2.48000      0.03078      2.02018      0.03248      2.07205
     2.49000      0.03102      2.02326      0.03273      2.07530
     2.50000      0.03126      2.02637      0.03299      2.07857
     2.51000      0.03151      2.02950      0.03325      2.08187
     2.52000      0.03175      2.03265      0.03352      2.08520
     2.53000      0.03201      2.03583      0.03379      2.08856
     2.54000      0.03226      2.03903      0.03406      2.09194
     2.55000      0.03252      2.04226      0.03434      2.09534
     2.56000      0.03278      2.04551      0.03462      2.09878
     2.57000      0.03305      2.04879      0.03491      2.10224
     2.58000      0.03332      2.05210      0.03520      2.10574
     2.59000      0.03359      2.05543      0.03549      2.10926
     2.60000      0.03387      2.05879      0.03578      2.11281
     2.61000      0.03415      2.06218      0.03609      2.11639
     2.62000      0.03443      2.06559      0.03639      2.12000
     2.63000      0.03472      2.06904      0.03670      2.12364
     2.64000      0.03501      2.07251      0.03701      2.12731
     2.65000      0.03531      2.07601      0.03733      2.13101
     2.66000      0.03561      2.07955      0.03765      2.13474
     2.67000      0.03591      2.08311      0.03798      2.13851
     2.68000      0.03622      2.08670      0.03831      2.14231
     2.69000      0.03653      2.09032      0.03865      2.14614
     2.70000      0.03685      2.09398      0.03899      2.15000
     2.71000      0.03717      2.09766      0.03933      2.15390
     2.72000      0.03749      2.10138      0.03969      2.15784
     2.73000      0.03782      2.10513      0.04004      2.16181
     2.74000      0.03816      2.10891      0.04040      2.16581
     2.75000      0.03850      2.11273      0.04077      2.16985
     2.76000      0.03884      2.11658      0.04114      2.17393
     2.77000      0.03919      2.12046      0.04152      2.17804
     2.78000      0.03955      2.12438      0.04191      2.18220
     2.79000      0.03991      2.12834      0.04230      2.18639
     2.80000      0.04028      2.13233      0.04269      2.19062
     2.81000      0.04065      2.13636      0.04309      2.19488
     2.82000      0.04102      2.14042      0.04350      2.19919
     2.83000      0.04141      2.14452      0.04391      2.20354
     2.84000      0.04179      2.14866      0.04434      2.20793
     2.85000      0.04219      2.15284      0.04476      2.21236
     2.86000      0.04259      2.15706      0.04520      2.21684
     2.87000      0.04299      2.16132      0.04564      2.22136
     2.88000      0.04341      2.16562      0.04609      2.22592
     2.89000      0.04383      2.16996      0.04654      2.23053
     2.90000      0.04425      2.17434      0.04700      2.23518
     2.91000      0.04468      2.17876      0.04747      2.23988
     2.92000      0.04512      2.18323      0.04795      2.24462
     2.93000      0.04557      2.18774      0.04844      2.24941
     2.94000      0.04602      2.19230      0.04893      2.25426
     2.95000      0.04648      2.19690      0.04943      2.25915
     2.96000      0.04695      2.20154      0.04994      2.26409
     2.97000      0.04743      2.20624      0.05046      2.26908
     2.98000      0.04791      2.21098      0.05099      2.27412
     2.99000      0.04840      2.21577      0.05153      2.27922
     3.00000      0.04890      2.22060      0.05207      2.28436
     3.01000      0.04941      2.22549      0.05263      2.28957
     3.02000      0.04992      2.23043      0.05319      2.29483
     3.03000      0.05045      2.23542      0.05377      2.30014
     3.04000      0.05098      2.24046      0.05435      2.30551
     3.05000      0.05153      2.24555      0.05495      2.31094
     3.06000      0.05208      2.25070      0.05555      2.31643
     3.07000      0.05264      2.25591      0.05617      2.32198
     3.08000      0.05321      2.26116      0.05680      2.32759
     3.09000      0.05379      2.26648      0.05744      2.33326
     3.10000      0.05439      2.27185      0.05809      2.33900
     3.11000      0.05499      2.27729      0.05875      2.34480
     3.12000      0.05560      2.28278      0.05943      2.35067
     3.13000      0.05623      2.28833      0.06012      2.35660
     3.14000      0.05686      2.29395      0.06082      2.36261
     3.15000      0.05751      2.29963      0.06153      2.36868
     3.16000      0.05817      2.30537      0.06226      2.37482
     3.17000      0.05884      2.31118      0.06301      2.38104
     3.18000      0.05952      2.31706      0.06376      2.38733
     3.19000      0.06022      2.32300      0.06453      2.39369
     3.20000      0.06093      2.32902      0.06532      2.40013
     3.21000      0.06165      2.33510      0.06612      2.40665
     3.22000      0.06239      2.34125      0.06694      2.41325
     3.23000      0.06314      2.34748      0.06777      2.41993
     3.24000      0.06391      2.35379      0.06863      2.42669
     3.25000      0.06469      2.36016      0.06949      2.43354
     3.26000      0.06548      2.36662      0.07038      2.44047
     3.27000      0.06630      2.37316      0.07129      2.44749
     3.28000      0.06712      2.37977      0.07221      2.45460
     3.29000      0.06797      2.38647      0.07315      2.46181
     3.30000      0.06883      2.39325      0.07412      2.46910
     3.31000      0.06971      2.40012      0.07510      2.47649
     3.32000      0.07061      2.40707      0.07610      2.48398
     3.33000      0.07152      2.41412      0.07713      2.49157
     3.34000      0.07246      2.42125      0.07818      2.49926
     3.35000      0.07341      2.42848      0.07925      2.50705
     3.36000      0.07438      2.43580      0.08034      2.51495
     3.37000      0.07538      2.44322      0.08146      2.52296
     3.38000      0.07639      2.45073      0.08261      2.53107
     3.39000      0.07743      2.45835      0.08378      2.53930
     3.40000      0.07849      2.46607      0.08498      2.54765
     3.41000      0.07958      2.47389      0.08620      2.55612
     3.42000      0.08068      2.48182      0.08745      2.56470
     3.43000      0.08182      2.48986      0.08874      2.57341
     3.44000      0.08297      2.49802      0.09005      2.58225
     3.45000      0.08416      2.50628      0.09139      2.59121
     3.46000      0.08537      2.51467      0.09277      2.60031
     3.47000      0.08661      2.52317      0.09418      2.60954
     3.48000      0.08787      2.53180      0.09562      2.61891
     3.49000      0.08917      2.54055      0.09710      2.62843
     3.50000      0.09050      2.54943      0.09862      2.63809
     3.51000      0.09186      2.55844      0.10017      2.64790
     3.52000      0.09325      2.56758      0.10176      2.65786
     3.53000      0.09467      2.57686      0.10340      2.66798
     3.54000      0.09613      2.58628      0.10507      2.67826
     3.55000      0.09763      2.59585      0.10679      2.68870
     3.56000      0.09916      2.60556      0.10855      2.69931
    3.570000     0.100729     2.615426     0.110365     2.710100
    3.580000     0.102339     2.625444     0.112224     2.721064
    3.590000     0.103990     2.635620     0.114133     2.732210
    3.600000     0.105683     2.645958     0.116094     2.743543
    3.610000     0.107420     2.656463     0.118108     2.755067
    3.620001     0.109202     2.667139     0.120178     2.766791
    3.630000     0.111031     2.677989     0.122306     2.778715
    3.640001     0.112908     2.689020     0.124495     2.790849
    3.650000     0.114836     2.700233     0.126745     2.803194
    3.660001     0.116816     2.711637     0.129060     2.815762
    3.670000     0.118850     2.723233     0.131443     2.828554
    3.680001     0.120941     2.735031     0.133896     2.841580
    3.690000     0.123089     2.747031     0.136421     2.854844
    3.700001     0.125298     2.759243     0.139022     2.868355
    3.710000     0.127570     2.771669     0.141702     2.882118
    3.720001     0.129906     2.784319     0.144464     2.896143
    3.730000     0.132311     2.797196     0.147311     2.910435
    3.740000     0.134785     2.810308     0.150248     2.925005
    3.750000     0.137333     2.823662     0.153277     2.939859
    3.760000     0.139957     2.837264     0.156403     2.955009
    3.770000     0.142659     2.851120     0.159630     2.970459
    3.780000     0.145445     2.865242     0.162963     2.986223
    3.790000     0.148316     2.879632     0.166405     3.002308
    3.800000     0.151276     2.894304     0.169963     3.018728
    3.810000     0.154329     2.909261     0.173641     3.035488
    3.820000     0.157480     2.924516     0.177445     3.052606
    3.830000     0.160731     2.940074     0.181380     3.070088
    3.840000     0.164089     2.955950     0.185454     3.087951
    3.850000     0.167556     2.972147     0.189671     3.106202
    3.860000     0.171140     2.988683     0.194041     3.124861
    3.869999     0.174843     3.005562     0.198568     3.143936
    3.880000     0.178672     3.022802     0.203262     3.163447
    3.889999     0.182633     3.040406     0.208131     3.183404
    3.900000     0.186732     3.058397     0.213184     3.203828
    3.910001     0.190975     3.076781     0.218430     3.224734
    3.920000     0.195369     3.095568     0.223878     3.246136
    3.930001     0.199923     3.114781     0.229541     3.268059
    3.940000     0.204641     3.134427     0.235428     3.290514
    3.950001     0.209536     3.154527     0.241553     3.313531
    3.960000     0.214612     3.175092     0.247927     3.337123
    3.970001     0.219882     3.196144     0.254566     3.361319
    3.980000     0.225353     3.217695     0.261482     3.386136
    3.990001     0.231038     3.239769     0.268695     3.411606
    4.000000     0.236947     3.262380     0.276217     3.437748
    4.010001     0.243092     3.285554     0.284071     3.464597
    4.020000     0.249485     3.309305     0.292272     3.492173
    4.030001     0.256142     3.333665     0.300845     3.520516
    4.040000     0.263075     3.358646     0.309810     3.549649
    4.050001     0.270301     3.384284     0.319193     3.579615
    4.060000     0.277836     3.410596     0.329018     3.610441
    4.070001     0.285699     3.437617     0.339317     3.642174
    4.080000     0.293907     3.465368     0.350117     3.674845
    4.090001     0.302483     3.493888     0.361454     3.708506
    4.100000     0.311447     3.523200     0.373360     3.743190
    4.110001     0.320826     3.553347     0.385880     3.778957
    4.120000     0.330642     3.584354     0.399049     3.815847
    4.130001     0.340926     3.616271     0.412920     3.853924
    4.140000     0.351704     3.649126     0.427538     3.893231
    4.150001     0.363013     3.682973     0.442960     3.933842
    4.160000     0.374883     3.717843     0.459244     3.975809
    4.170001     0.387357     3.753797     0.476458     4.019210
    4.180000     0.400472     3.790872     0.494668     4.064107
    4.190001     0.414275     3.829133     0.513959     4.110588
    4.200000     0.428813     3.868626     0.534410     4.158720
    4.210001     0.444141     3.909420     0.556122     4.208606
    4.219999     0.460312     3.951567     0.579193     4.260320
    4.230000     0.477395     3.995147     0.603744     4.313978
    4.239999     0.495453     4.040218     0.629895     4.369668
    4.250000     0.514567     4.086869     0.657795     4.427516
    4.259999     0.534814     4.135168     0.687591     4.487622
    4.270000     0.556289     4.185214     0.719467     4.550131
    4.280001     0.579091     4.237091     0.753612     4.615166
    4.290000     0.603324     4.290887     0.790235     4.682855
    4.300001     0.629119     4.346724     0.829592     4.753370
    4.310000     0.656600     4.404693     0.871939     4.826844
    4.320001     0.685926     4.464929     0.917596     4.903469
    4.330000     0.717251     4.527538     0.966891     4.983388
    4.340001     0.750770     4.592670     1.020227     5.066811
    4.350000     0.786674     4.660448     1.078025     5.153896
    4.360001     0.825205     4.731039     1.140800     5.244864
    4.370000     0.866605     4.804582     1.209095     5.339878
    4.380001     0.911172     4.881261     1.283576     5.439162
    4.390000     0.959213     4.961233     1.364952     5.542871
    4.400001     1.011107     5.044704     1.454086     5.651216
    4.410000     1.067242     5.131841     1.551910     5.764310
    4.420001     1.128099     5.222870     1.659558     5.882311
    4.430000     1.194181     5.317971     1.778260     6.005249
    4.440001     1.266103     5.417382     1.909511     6.133153
    4.450000     1.344516     5.521281     2.054944     6.265869
    4.460001     1.430217     5.629906     2.216531     6.403173
    4.470000     1.524060     5.743420     2.396434     6.544553
    4.480000     1.627084     5.862036     2.597243     6.689301
    4.490000     1.740415     5.985857     2.821778     6.836227
    4.500000     1.865422     6.115024     3.073373     6.983726
    4.510000     2.003596     6.249518     3.355588     7.129404
    4.520000     2.156749     6.389308     3.672503     7.270044
    4.530000     2.326864     6.534130     4.028267     7.401145
    4.540000     2.516341     6.683616     4.427322     7.516766
    4.550000     2.727811     6.837029     4.873608     7.608972
    4.560000     2.964428     6.993356     5.370541     7.667594
    4.570000     3.229631     7.150985     5.919604     7.679801
    4.580000     3.527481     7.307723     6.519814     7.630064
    4.590000     3.862309     7.460377     7.165490     7.500534
    4.600000     4.239066     7.604651     7.845304     7.272089
    4.610000     4.662761     7.734599     8.539927     6.926749
    4.620000     5.138702     7.842350     9.222280     6.450773
    4.630001     5.671593     7.917462     9.857955     5.839187
     4.64000      6.26496      7.94646     10.40931      5.09947
     4.65000      6.92036      7.91242     10.84170      4.25268
     4.66000      7.63507      7.79478     11.12948      3.33216
     4.67000      8.40080      7.56971     11.26101      2.37674
     4.68000      9.20027      7.21187     11.23856      1.42466
     4.69000     10.00584      6.69709     11.07470      0.50685
     4.70000     10.77722      6.00786     10.78684     -0.35353
     4.71000     11.46372      5.13903     10.39299     -1.14054
     4.72000     12.00848      4.10521      9.91088     -1.84152
     4.73000     12.35846      2.94339      9.35856     -2.44657
     4.74000     12.47537      1.71249      8.75616     -2.94810
     4.75000     12.34578      0.48343      8.12509     -3.34322
     4.76000     11.98471     -0.67249      7.48715     -3.63433
     4.77000     11.43135     -1.69808      6.86147     -3.82940
     4.78000     10.73952     -2.55695      6.26353     -3.94026
    4.790001     9.965597    -3.236243     5.703593    -3.980843
    4.800000     9.160217    -3.741523     5.187769    -3.965249
    4.810000     8.362510    -4.091155     4.718082    -3.906506
    4.820000     7.599995    -4.309243     4.294170    -3.815904
    4.830000     6.888929    -4.421275     3.913641    -3.702709
    4.840000     6.237671    -4.450830     3.573375    -3.574338
    4.850000     5.648259    -4.418310     3.269581    -3.436460
    4.860000     5.119357    -4.340469     2.998598    -3.293428
    4.870000     4.647076    -4.230571     2.756719    -3.148384
    4.880000     4.226763    -4.098918     2.540666    -3.003691
    4.890000     3.853101    -3.953255     2.347327    -2.860943
    4.900000     3.521088    -3.799430     2.174046    -2.721324
    4.910000     3.225789    -3.641662     2.018370    -2.585546
    4.920000     2.962896    -3.483083     1.878246    -2.454126
    4.930000     2.728376    -3.325835     1.751790    -2.327295
    4.940000     2.518818    -3.171499     1.637440    -2.205217
    4.950000     2.331093    -3.021055     1.533762    -2.087864
    4.960000     2.162596    -2.875223     1.439577    -1.975215
    4.970000     2.010949    -2.734361     1.353796    -1.867123
    4.980000     1.874188    -2.598722     1.275523    -1.763475
    4.990000     1.750517    -2.468332     1.203925    -1.664068
    5.000001     1.638440    -2.343184     1.138313    -1.568737
    5.010000     1.536652    -2.223200     1.078076    -1.477310
    5.020001     1.443972    -2.108192     1.022651    -1.389567
    5.030000     1.359427    -1.998020     0.971579    -1.305349
    5.040001     1.282115    -1.892454     0.924421    -1.224447
    5.050000     1.211298    -1.791321     0.880821    -1.146710
    5.060001     1.146281    -1.694375     0.840432    -1.071943
    5.070000     1.086496    -1.601439     0.802976    -1.000006
    5.080001     1.031405    -1.512276     0.768178    -0.930724
    5.090000     0.980569    -1.426715     0.735818    -0.863970
    5.100001     0.933566    -1.344534     0.705678    -0.799586
    5.110000     0.890053    -1.265575     0.677580    -0.737459
    5.120001     0.849698    -1.189635     0.651350    -0.677447
    5.130000     0.812231    -1.116572     0.626846    -0.619451
    5.140001     0.777385    -1.046203     0.603924    -0.563342
    5.150000     0.744948    -0.978401     0.582471    -0.509035
    5.160001     0.714707    -0.913002     0.562370    -0.456412
    5.170000     0.686489    -0.849893     0.543529    -0.405400
    5.180001     0.660123    -0.788928     0.525851    -0.355894
    5.190000     0.635471    -0.730007     0.509260    -0.307827
    5.200001     0.612393    -0.673001     0.493678    -0.261106
    5.210000     0.590776    -0.617820     0.479042    -0.215672
    5.220001     0.570506    -0.564349     0.465287    -0.171441
    5.230000     0.551491    -0.512512     0.452361    -0.128361
     5.24000      0.53364     -0.46220      0.44021     -0.08635
     5.25000      0.51687     -0.41335      0.42879     -0.04538
      5.2600       0.5011      -0.3659       0.4181      -0.0054
     5.27000      0.48629     -0.31970      0.40798      0.03375
     5.28000      0.47236     -0.27474      0.39851      0.07199
    5.289999     0.459248    -0.230961     0.389636     0.109426
    5.300000     0.446916    -0.188271     0.381311     0.146101
    5.309999     0.435315    -0.146627     0.373517     0.182051
    5.320000     0.424402    -0.105959     0.366228     0.217331
     5.33000      0.41414     -0.06623      0.35942      0.25197
     5.34000      0.40449     -0.02736      0.35309      0.28602
     5.35000      0.39542      0.01067      0.34720      0.31952
     5.36000      0.38691      0.04792      0.34174      0.35249
     5.37000      0.37893      0.08444      0.33671      0.38499
    5.380000     0.371443     0.120263     0.332083     0.417037
    5.390001     0.364440     0.155439     0.327857     0.448676
    5.400000     0.357898     0.190000     0.324023     0.479932
    5.410001     0.351799     0.223993     0.320573     0.510847
    5.420000     0.346126     0.257447     0.317504     0.541445
    5.430001     0.340865     0.290406     0.314812     0.571767
    5.440000     0.336003     0.322896     0.312495     0.601835
    5.450001     0.331529     0.354961     0.310553     0.631691
    5.460000     0.327433     0.386624     0.308988     0.661356
    5.470001     0.323706     0.417928     0.307804     0.690871
    5.480000     0.320343     0.448893     0.307006     0.720258
    5.490001     0.317336     0.479562     0.306601     0.749558
    5.500000     0.314682     0.509954     0.306598     0.778794
    5.510001     0.312378     0.540111     0.307009     0.808007
    5.520000     0.310423     0.570053     0.307848     0.837221
    5.530001     0.308815     0.599818     0.309132     0.866479
    5.540000     0.307557     0.629429     0.310878     0.895805
    5.550001     0.306650     0.658923     0.313111     0.925244
    5.560000     0.306100     0.688322     0.315855     0.954822
    5.570001     0.305910     0.717665     0.319140     0.984586
    5.580000     0.306090     0.746974     0.323000     1.014564
    5.590001     0.306647     0.776288     0.327473     1.044805
    5.600000     0.307591     0.805630     0.332604     1.075340
    5.610001     0.308937     0.835041     0.338442     1.106221
    5.620000     0.310698     0.864545     0.345044     1.137481
    5.630001     0.312891     0.894185     0.352476     1.169175
    5.639999     0.315536     0.923986     0.360808     1.201339
    5.650001     0.318655     0.953993     0.370129     1.234030
    5.659999     0.322272     0.984234     0.380530     1.267284
    5.670001     0.326416     1.014756     0.392124     1.301162
    5.679999     0.331119     1.045591     0.405031     1.335702
    5.690001     0.336418     1.076787     0.419400     1.370960
    5.699999     0.342351     1.108379     0.435388     1.406973
    5.710001     0.348965     1.140423     0.453189     1.443792
    5.719999     0.356311     1.172954     0.473013     1.481441
    5.730000     0.364447     1.206032     0.495116     1.519959
    5.740001     0.373437     1.239704     0.519782     1.559353
    5.750000     0.383353     1.274017     0.547335     1.599610
    5.760001     0.394280     1.309039     0.578167     1.640711
    5.770000     0.406307     1.344816     0.612707     1.682571
    5.780001     0.419544     1.381422     0.651471     1.725085
    5.790000     0.434104     1.418908     0.695025     1.768045
    5.800001     0.450127     1.457350     0.744043     1.811182
    5.810000     0.467762     1.496804     0.799256     1.854070
    5.820001     0.487189     1.537348     0.861512     1.896139
    5.830000     0.508600     1.579038     0.931700     1.936571
    5.840001     0.532229     1.621953     1.010807     1.974279
    5.850000     0.558330     1.666142     1.099778     2.007776
    5.860001     0.587209     1.711676     1.199537     2.035127
    5.870000     0.619200     1.758589     1.310732     2.053808
    5.880001     0.654708     1.806926     1.433658     2.060657
    5.890000     0.694177     1.856685     1.567804     2.051821
    5.900001     0.738142     1.907863     1.711616     2.022853
    5.910000     0.787193     1.960381     1.861857     1.969003
    5.920001     0.842042     2.014136     2.013342     1.885763
    5.930000     0.903472     2.068909     2.158519     1.769860
    5.940001     0.972418     2.124403     2.287894     1.620357
    5.950000     1.049903     2.180137     2.390812     1.440009
    5.960001     1.137133     2.235464     2.457354     1.235778
    5.970000     1.235395     2.289430     2.480360     1.018726
    5.980000     1.346159     2.340762     2.457341     0.802161
    5.990000     1.470913     2.387686     2.391138     0.599449
    6.000000     1.611230     2.427861     2.289119     0.421316
    6.010000     1.768476     2.458172     2.161389     0.274575
    6.020000     1.943772     2.474620     2.018522     0.161643
     6.03000      2.13745      2.47216      1.87002      0.08148
     6.04000      2.34881      2.44466      1.72322      0.03066
    6.050        2.575        2.385        1.583       0.4675E-2
    6.060        2.812        2.286        1.453       -.1224E-2
      6.0700       3.0497       2.1398       1.3349       0.0086
     6.08000      3.27748      1.94181      1.22835      0.03023
     6.09000      3.47979      1.69048      1.13354      0.06067
     6.10000      3.63985      1.39008      1.04975      0.09742
    6.110001     3.741869     1.051847     0.976131     0.138581
    6.120000     3.774596     0.693303     0.911770     0.182708
    6.130001     3.734162     0.335531     0.855733     0.228755
    6.140        3.625       -.3277E-3    0.8072       0.2759   
    6.150001     3.459264    -0.297370     0.765372     0.323717
    6.160000     3.252541    -0.544894     0.729616     0.371696
    6.170001     3.021694    -0.739172     0.699343     0.419633
    6.180000     2.781722    -0.881923     0.674082     0.467347
    6.190001     2.544189    -0.978635     0.653431     0.514753
    6.200000     2.317212    -1.036478     0.637085     0.561787
    6.210001     2.105578    -1.063013     0.624802     0.608446
    6.220000     1.911736    -1.065228     0.616418     0.654720
    6.230001     1.736272    -1.049162     0.611834     0.700639
    6.240000     1.578776    -1.019771     0.611017     0.746203
    6.250000     1.438088    -0.980976     0.613999     0.791437
    6.260000     1.312825    -0.935826     0.620878     0.836319
    6.270000     1.201407    -0.886607     0.631820     0.880828
    6.280000     1.102352    -0.835048     0.647054     0.924876
    6.290000     1.014196    -0.782393     0.666891     0.968345
    6.300000     0.935663    -0.729572     0.691701     1.011012
    6.310000     0.865557    -0.677214     0.721945     1.052578
    6.320000     0.802866    -0.625788     0.758131     1.092577
    6.330000     0.746661    -0.575580     0.800848     1.130390
    6.340000     0.696169    -0.526806     0.850686     1.165136
    6.350000     0.650684    -0.479566     0.908250     1.195658
    6.360000     0.609624    -0.433935     0.974019     1.220414
    6.370000     0.572455    -0.389916     1.048291     1.237450
    6.380000     0.538739    -0.347514     1.130924     1.244324
    6.390000     0.508073    -0.306683     1.221177     1.238153
    6.400000     0.480127    -0.267391     1.317302     1.215724
    6.410000     0.454595    -0.229572     1.416328     1.173799
    6.420000     0.431226    -0.193176     1.513697     1.109669
    6.430000     0.409786    -0.158131     1.603380     1.021869
    6.440000     0.390083    -0.124383     1.678190     0.911127
     6.45000      0.37194     -0.09186      1.73087      0.78095
     6.46000      0.35520     -0.06050      1.75540      0.63784
     6.47000      0.33973     -0.03025      1.74852      0.49055
    6.480       0.3254       -.1040E-2     1.711       0.3485   
     6.49000      0.31214      0.02717      1.64536      0.22008
     6.50000      0.29981      0.05446      1.55921      0.11129
     6.51000      0.28835      0.08085      1.45946      0.02510
     6.52000      0.27769      0.10641      1.35308     -0.03826
     6.53000      0.26775      0.13117      1.24583     -0.08053
    6.540001     0.258473     0.155187     1.141897    -0.104612
    6.550000     0.249811     0.178494     1.044007    -0.113766
    6.560001     0.241712     0.201136     0.953607    -0.111183
     6.57000      0.23413      0.22314      0.87131     -0.09969
     6.58000      0.22704      0.24455      0.79706     -0.08165
     6.59000      0.22039      0.26540      0.73049     -0.05897
     6.60000      0.21416      0.28571      0.67102     -0.03313
    6.610       0.2083       0.3055       0.6180       -.5274E-2
     6.62000      0.20283      0.32484      0.57071      0.02377
     6.63000      0.19768      0.34371      0.52854      0.05335
     6.64000      0.19286      0.36216      0.49088      0.08303
    6.650000     0.188327     0.380207     0.457190     0.112478
    6.660001     0.184080     0.397873     0.426980     0.141470
    6.670000     0.180099     0.415177     0.399837     0.169844
    6.680001     0.176370     0.432145     0.375381     0.197509
    6.690000     0.172882     0.448791     0.353296     0.224395
    6.700000     0.169622     0.465139     0.333295     0.250478
    6.710000     0.166582     0.481202     0.315140     0.275738
    6.720000     0.163752     0.497003     0.298613     0.300188
    6.730000     0.161126     0.512553     0.283534     0.323831
    6.740000     0.158696     0.527873     0.269740     0.346698
    6.750000     0.156457     0.542975     0.257093     0.368805
    6.760000     0.154404     0.557879     0.245469     0.390188
    6.770000     0.152534     0.572595     0.234764     0.410871
    6.780000     0.150845     0.587141     0.224880     0.430889
    6.789999     0.149334     0.601529     0.215739     0.450267
    6.800000     0.148001     0.615777     0.207265     0.469042
    6.809999     0.146847     0.629894     0.199397     0.487237
    6.820000     0.145871     0.643899     0.192076     0.504884
    6.830001     0.145078     0.657804     0.185252     0.522009
    6.840000     0.144470     0.671620     0.178882     0.538635
    6.850001     0.144051     0.685365     0.172924     0.554792
    6.860000     0.143829     0.699050     0.167345     0.570497
    6.870001     0.143810     0.712693     0.162110     0.585778
    6.880000     0.144004     0.726303     0.157193     0.600650
    6.890001     0.144420     0.739900     0.152566     0.615139
    6.900000     0.145072     0.753493     0.148209     0.629258
    6.910001     0.145975     0.767101     0.144098     0.643028
    6.920000     0.147146     0.780737     0.140216     0.656463
    6.930001     0.148605     0.794418     0.136546     0.669582
    6.940000     0.150374     0.808155     0.133071     0.682396
    6.950001     0.152482     0.821969     0.129779     0.694922
    6.960000     0.154959     0.835870     0.126656     0.707170
    6.970001     0.157840     0.849878     0.123690     0.719156
    6.980000     0.161168     0.864001     0.120871     0.730887
    6.990001     0.164989     0.878258     0.118188     0.742379
    7.000000     0.169358     0.892656     0.115635     0.753637
    7.010001     0.174341     0.907208     0.113200     0.764676
    7.020000     0.180008     0.921916     0.110878     0.775502
    7.030001     0.186447     0.936786     0.108661     0.786126
    7.040000     0.193754     0.951807     0.106544     0.796553
    7.050001     0.202044     0.966968     0.104519     0.806795
    7.060000     0.211447     0.982238     0.102582     0.816855
    7.070001     0.222114     0.997575     0.100727     0.826745
     7.08000      0.23421      1.01291      0.09895      0.83647
     7.09000      0.24795      1.02813      0.09725      0.84603
     7.10000      0.26352      1.04311      0.09561      0.85544
     7.11000      0.28119      1.05763      0.09404      0.86471
     7.12000      0.30120      1.07143      0.09254      0.87383
     7.13000      0.32383      1.08414      0.09109      0.88281
     7.14000      0.34930      1.09526      0.08970      0.89166
     7.15000      0.37784      1.10415      0.08836      0.90039
     7.16000      0.40955      1.11000      0.08707      0.90899
     7.17000      0.44436      1.11183      0.08583      0.91748
     7.18000      0.48192      1.10845      0.08464      0.92585
     7.19000      0.52151      1.09858      0.08349      0.93411
     7.20000      0.56185      1.08097      0.08238      0.94227
     7.21000      0.60107      1.05462      0.08131      0.95032
     7.22000      0.63671      1.01905      0.08028      0.95827
     7.23000      0.66593      0.97472      0.07928      0.96613
     7.24000      0.68592      0.92321      0.07832      0.97390
     7.25000      0.69449      0.86726      0.07739      0.98157
     7.26000      0.69058      0.81036      0.07649      0.98916
     7.27000      0.67457      0.75621      0.07563      0.99667
     7.28000      0.64819      0.70795      0.07479      1.00409
     7.29000      0.61402      0.66775      0.07398      1.01144
     7.30000      0.57495      0.63655      0.07319      1.01871
     7.31000      0.53367      0.61430      0.07244      1.02590
     7.32000      0.49232      0.60020      0.07170      1.03303
     7.33000      0.45247      0.59308      0.07099      1.04008
     7.34000      0.41507      0.59163      0.07031      1.04707
     7.35000      0.38065      0.59463      0.06964      1.05400
     7.36000      0.34937      0.60100      0.06900      1.06086
     7.37000      0.32122      0.60983      0.06837      1.06766
     7.38000      0.29601      0.62040      0.06777      1.07440
     7.39000      0.27352      0.63217      0.06719      1.08109
     7.40000      0.25348      0.64469      0.06662      1.08772
     7.41000      0.23564      0.65766      0.06607      1.09429
     7.42000      0.21974      0.67084      0.06554      1.10082
     7.43000      0.20555      0.68406      0.06502      1.10729
     7.44000      0.19287      0.69720      0.06452      1.11371
     7.45000      0.18151      0.71016      0.06404      1.12009
     7.46000      0.17130      0.72290      0.06357      1.12642
     7.47000      0.16212      0.73538      0.06311      1.13271
     7.48000      0.15383      0.74757      0.06267      1.13895
     7.49000      0.14633      0.75946      0.06225      1.14515
     7.50000      0.13953      0.77105      0.06183      1.15131
     7.51000      0.13334      0.78234      0.06143      1.15743
     7.52000      0.12770      0.79333      0.06104      1.16352
     7.53000      0.12254      0.80403      0.06067      1.16956
     7.54000      0.11782      0.81446      0.06030      1.17557
     7.55000      0.11348      0.82461      0.05995      1.18154
     7.56000      0.10948      0.83450      0.05961      1.18749
     7.57000      0.10580      0.84415      0.05927      1.19339
     7.58000      0.10239      0.85356      0.05895      1.19927
     7.59000      0.09924      0.86275      0.05864      1.20512
     7.60000      0.09631      0.87173      0.05834      1.21093
     7.61000      0.09359      0.88050      0.05805      1.21672
     7.62000      0.09106      0.88907      0.05777      1.22248
     7.63000      0.08869      0.89747      0.05750      1.22821
     7.64000      0.08649      0.90569      0.05723      1.23392
     7.65000      0.08442      0.91374      0.05698      1.23960
     7.66000      0.08248      0.92164      0.05673      1.24526
     7.67000      0.08066      0.92939      0.05649      1.25089
     7.68000      0.07895      0.93699      0.05627      1.25650
     7.69000      0.07734      0.94446      0.05604      1.26209
     7.70000      0.07582      0.95180      0.05583      1.26766
     7.71000      0.07439      0.95902      0.05563      1.27320
     7.72000      0.07304      0.96612      0.05543      1.27873
     7.73000      0.07176      0.97311      0.05524      1.28424
     7.74000      0.07055      0.98000      0.05505      1.28973
     7.75000      0.06940      0.98678      0.05488      1.29520
     7.76000      0.06832      0.99347      0.05471      1.30066
     7.77000      0.06729      1.00006      0.05455      1.30610
     7.78000      0.06630      1.00657      0.05439      1.31152
     7.79000      0.06537      1.01299      0.05424      1.31693
     7.80000      0.06448      1.01933      0.05410      1.32233
     7.81000      0.06364      1.02559      0.05396      1.32771
     7.82000      0.06283      1.03178      0.05383      1.33308
     7.83000      0.06207      1.03790      0.05371      1.33843
     7.84000      0.06133      1.04395      0.05359      1.34378
     7.85000      0.06063      1.04994      0.05348      1.34911
     7.86000      0.05996      1.05586      0.05338      1.35444
     7.87000      0.05933      1.06173      0.05328      1.35975
     7.88000      0.05872      1.06754      0.05318      1.36505
     7.89000      0.05813      1.07329      0.05310      1.37035
     7.90000      0.05757      1.07899      0.05301      1.37563
     7.91000      0.05704      1.08464      0.05294      1.38091
     7.92000      0.05653      1.09024      0.05287      1.38618
     7.93000      0.05604      1.09580      0.05280      1.39145
     7.94000      0.05556      1.10131      0.05274      1.39671
     7.95000      0.05511      1.10678      0.05268      1.40196
     7.96000      0.05468      1.11221      0.05263      1.40721
     7.97000      0.05427      1.11760      0.05259      1.41245
     7.98000      0.05387      1.12295      0.05255      1.41770
     7.99000      0.05349      1.12826      0.05252      1.42293
     8.00000      0.05313      1.13354      0.05249      1.42816
     8.01000      0.05278      1.13878      0.05246      1.43339
     8.02000      0.05244      1.14400      0.05244      1.43862
     8.03000      0.05212      1.14918      0.05243      1.44385
     8.04000      0.05181      1.15433      0.05242      1.44908
     8.05000      0.05152      1.15945      0.05241      1.45430
     8.06000      0.05124      1.16455      0.05241      1.45953
     8.07000      0.05096      1.16962      0.05242      1.46475
     8.08000      0.05071      1.17467      0.05243      1.46998
     8.09000      0.05046      1.17969      0.05244      1.47521
     8.10000      0.05022      1.18469      0.05246      1.48044
     8.11000      0.04999      1.18966      0.05249      1.48567
     8.12000      0.04978      1.19462      0.05251      1.49090
     8.13000      0.04957      1.19955      0.05255      1.49614
     8.14000      0.04937      1.20447      0.05259      1.50138
     8.15000      0.04918      1.20936      0.05263      1.50662
     8.16000      0.04900      1.21424      0.05268      1.51187
     8.17000      0.04883      1.21911      0.05273      1.51713
     8.18000      0.04867      1.22395      0.05279      1.52239
     8.19000      0.04851      1.22878      0.05285      1.52765
     8.20000      0.04837      1.23360      0.05291      1.53293
     8.21000      0.04823      1.23841      0.05298      1.53821
     8.22000      0.04810      1.24320      0.05306      1.54349
     8.23000      0.04797      1.24798      0.05314      1.54879
     8.24000      0.04786      1.25274      0.05322      1.55409
     8.25000      0.04775      1.25750      0.05331      1.55940
     8.26000      0.04764      1.26225      0.05341      1.56472
     8.27000      0.04755      1.26698      0.05351      1.57005
     8.28000      0.04746      1.27171      0.05361      1.57539
     8.29000      0.04738      1.27643      0.05372      1.58074
     8.30000      0.04730      1.28114      0.05383      1.58610
     8.31000      0.04723      1.28585      0.05395      1.59148
     8.32000      0.04717      1.29055      0.05407      1.59686
     8.33000      0.04711      1.29524      0.05420      1.60226
     8.34000      0.04706      1.29993      0.05433      1.60767
     8.35000      0.04701      1.30461      0.05447      1.61309
     8.36000      0.04697      1.30929      0.05461      1.61853
     8.37000      0.04694      1.31397      0.05476      1.62398
     8.38000      0.04691      1.31864      0.05491      1.62945
     8.39000      0.04689      1.32332      0.05507      1.63493
     8.40000      0.04687      1.32798      0.05523      1.64043
     8.41000      0.04686      1.33265      0.05539      1.64595
     8.42000      0.04686      1.33732      0.05557      1.65148
     8.43000      0.04686      1.34199      0.05574      1.65702
     8.44000      0.04686      1.34666      0.05593      1.66259
     8.45000      0.04687      1.35133      0.05611      1.66817
     8.46000      0.04689      1.35599      0.05631      1.67378
     8.47000      0.04691      1.36067      0.05650      1.67940
     8.48000      0.04693      1.36534      0.05671      1.68504
     8.49000      0.04696      1.37002      0.05692      1.69071
     8.50000      0.04700      1.37470      0.05713      1.69639
     8.51000      0.04704      1.37938      0.05735      1.70210
     8.52000      0.04709      1.38407      0.05757      1.70782
     8.53000      0.04714      1.38877      0.05781      1.71357
     8.54000      0.04720      1.39347      0.05804      1.71934
     8.55000      0.04726      1.39817      0.05828      1.72514
     8.56000      0.04732      1.40288      0.05853      1.73096
     8.57000      0.04740      1.40760      0.05879      1.73681
     8.58000      0.04747      1.41233      0.05905      1.74268
     8.59000      0.04755      1.41706      0.05931      1.74858
     8.60000      0.04764      1.42181      0.05959      1.75450
     8.61000      0.04773      1.42656      0.05986      1.76045
     8.62000      0.04783      1.43132      0.06015      1.76643
     8.63000      0.04793      1.43609      0.06044      1.77244
     8.64000      0.04804      1.44087      0.06074      1.77848
     8.65000      0.04815      1.44567      0.06104      1.78454
     8.66000      0.04827      1.45047      0.06136      1.79064
     8.67000      0.04840      1.45529      0.06167      1.79677
     8.68000      0.04852      1.46011      0.06200      1.80293
     8.69000      0.04866      1.46496      0.06233      1.80912
     8.70000      0.04880      1.46981      0.06267      1.81535
     8.71000      0.04894      1.47468      0.06302      1.82161
     8.72000      0.04909      1.47956      0.06337      1.82790
     8.73000      0.04925      1.48446      0.06373      1.83423
     8.74000      0.04941      1.48938      0.06410      1.84060
     8.75000      0.04957      1.49431      0.06448      1.84700
     8.76000      0.04974      1.49925      0.06486      1.85344
     8.77000      0.04992      1.50422      0.06526      1.85992
     8.78000      0.05010      1.50920      0.06566      1.86644
     8.79000      0.05029      1.51420      0.06607      1.87299
     8.80000      0.05049      1.51922      0.06648      1.87959
     8.81000      0.05069      1.52426      0.06691      1.88623
     8.82000      0.05089      1.52932      0.06735      1.89292
     8.83000      0.05111      1.53440      0.06779      1.89964
     8.84000      0.05133      1.53950      0.06824      1.90641
     8.85000      0.05155      1.54462      0.06871      1.91323
     8.86000      0.05178      1.54977      0.06918      1.92009
     8.87000      0.05202      1.55494      0.06966      1.92700
     8.88000      0.05226      1.56013      0.07015      1.93396
     8.89000      0.05251      1.56534      0.07066      1.94096
     8.90000      0.05277      1.57059      0.07117      1.94802
     8.91000      0.05303      1.57585      0.07169      1.95513
     8.92000      0.05330      1.58115      0.07223      1.96229
     8.93000      0.05358      1.58647      0.07277      1.96950
     8.94000      0.05386      1.59182      0.07333      1.97677
     8.95000      0.05416      1.59719      0.07390      1.98409
     8.96000      0.05445      1.60260      0.07448      1.99147
     8.97000      0.05476      1.60803      0.07507      1.99890
     8.98000      0.05507      1.61350      0.07567      2.00640
     8.99000      0.05540      1.61900      0.07629      2.01395
     9.00000      0.05573      1.62453      0.07692      2.02157
     9.01000      0.05606      1.63009      0.07756      2.02925
     9.02000      0.05641      1.63569      0.07822      2.03699
     9.03000      0.05676      1.64132      0.07889      2.04480
     9.04000      0.05712      1.64698      0.07958      2.05267
     9.05000      0.05749      1.65268      0.08027      2.06062
     9.06000      0.05787      1.65842      0.08099      2.06863
     9.07000      0.05826      1.66420      0.08172      2.07671
     9.08000      0.05866      1.67001      0.08246      2.08487
     9.09000      0.05907      1.67587      0.08323      2.09310
     9.10000      0.05948      1.68176      0.08400      2.10140
     9.11000      0.05991      1.68770      0.08480      2.10979
     9.12000      0.06035      1.69368      0.08561      2.11825
     9.13000      0.06079      1.69970      0.08644      2.12679
     9.14000      0.06125      1.70577      0.08729      2.13541
     9.15000      0.06172      1.71188      0.08816      2.14412
     9.16000      0.06220      1.71804      0.08905      2.15291
     9.17000      0.06269      1.72424      0.08996      2.16180
     9.18000      0.06319      1.73050      0.09088      2.17077
     9.19000      0.06370      1.73680      0.09183      2.17983
     9.20000      0.06423      1.74316      0.09280      2.18899
     9.21000      0.06476      1.74957      0.09380      2.19824
     9.22000      0.06531      1.75603      0.09481      2.20759
     9.23000      0.06588      1.76254      0.09585      2.21705
     9.24000      0.06645      1.76911      0.09692      2.22660
     9.25000      0.06704      1.77574      0.09801      2.23626
     9.26000      0.06765      1.78243      0.09912      2.24603
     9.27000      0.06827      1.78917      0.10026      2.25591
     9.28000      0.06890      1.79598      0.10143      2.26590
     9.29000      0.06955      1.80285      0.10263      2.27600
     9.30000      0.07021      1.80979      0.10386      2.28623
     9.31000      0.07089      1.81679      0.10511      2.29657
     9.32000      0.07159      1.82385      0.10640      2.30704
     9.33000      0.07230      1.83099      0.10772      2.31764
     9.34000      0.07303      1.83820      0.10908      2.32836
     9.35000      0.07378      1.84548      0.11047      2.33922
     9.36000      0.07455      1.85283      0.11189      2.35022
     9.37000      0.07534      1.86026      0.11335      2.36135
     9.38000      0.07615      1.86777      0.11485      2.37263
     9.39000      0.07697      1.87535      0.11639      2.38406
     9.40000      0.07782      1.88302      0.11797      2.39564
     9.41000      0.07869      1.89077      0.11959      2.40737
     9.42000      0.07958      1.89861      0.12125      2.41926
     9.43000      0.08049      1.90654      0.12296      2.43132
     9.44000      0.08143      1.91455      0.12472      2.44354
     9.45000      0.08240      1.92266      0.12652      2.45594
     9.46000      0.08338      1.93086      0.12838      2.46851
     9.47000      0.08440      1.93916      0.13029      2.48126
     9.48000      0.08544      1.94756      0.13225      2.49420
     9.49000      0.08651      1.95606      0.13427      2.50733
     9.50000      0.08760      1.96467      0.13635      2.52066
     9.51000      0.08873      1.97338      0.13849      2.53419
     9.52000      0.08989      1.98221      0.14069      2.54793
     9.53000      0.09108      1.99115      0.14296      2.56188
     9.54000      0.09230      2.00020      0.14529      2.57606
     9.55000      0.09356      2.00938      0.14770      2.59046
     9.56000      0.09485      2.01868      0.15018      2.60510
     9.57000      0.09618      2.02810      0.15274      2.61998
     9.58000      0.09755      2.03765      0.15538      2.63510
     9.59000      0.09896      2.04734      0.15811      2.65048
    9.600000     0.100407     2.057169     0.160923     2.666132
    9.610000     0.101898     2.067136     0.163828     2.682049
    9.620001     0.103435     2.077250     0.166829     2.698249
    9.630000     0.105017     2.087512     0.169930     2.714737
    9.640000     0.106648     2.097930     0.173137     2.731527
    9.650000     0.108329     2.108505     0.176453     2.748622
    9.660001     0.110062     2.119245     0.179884     2.766039
    9.669999     0.111848     2.130152     0.183435     2.783784
    9.680000     0.113692     2.141234     0.187113     2.801872
    9.690000     0.115595     2.152493     0.190923     2.820311
    9.700001     0.117559     2.163939     0.194872     2.839116
    9.709999     0.119587     2.175572     0.198967     2.858296
    9.720000     0.121682     2.187404     0.203215     2.877870
    9.730000     0.123847     2.199437     0.207624     2.897845
    9.740000     0.126085     2.211680     0.212203     2.918244
    9.750001     0.128400     2.224139     0.216960     2.939076
    9.760000     0.130794     2.236820     0.221905     2.960356
    9.770001     0.133272     2.249732     0.227049     2.982109
    9.780000     0.135837     2.262881     0.232401     3.004343
    9.790001     0.138495     2.276278     0.237974     3.027085
    9.800000     0.141249     2.289928     0.243780     3.050347
    9.810000     0.144104     2.303844     0.249833     3.074156
    9.820000     0.147064     2.318030     0.256146     3.098530
    9.830001     0.150137     2.332501     0.262737     3.123496
    9.840000     0.153326     2.347263     0.269619     3.149072
    9.850000     0.156638     2.362330     0.276814     3.175290
    9.860000     0.160080     2.377709     0.284337     3.202169
    9.870001     0.163659     2.393417     0.292212     3.229747
    9.880000     0.167381     2.409461     0.300459     3.258044
    9.890000     0.171256     2.425860     0.309105     3.287103
    9.900000     0.175290     2.442621     0.318173     3.316946
    9.910001     0.179494     2.459763     0.327695     3.347619
    9.920000     0.183877     2.477298     0.337697     3.379147
    9.930000     0.188450     2.495245     0.348218     3.411584
    9.940000     0.193222     2.513616     0.359289     3.444959
    9.950001     0.198207     2.532434     0.370954     3.479328
    9.960000     0.203418     2.551713     0.383253     3.514727
    9.970000     0.208868     2.571476     0.396236     3.551219
    9.980000     0.214572     2.591740     0.409952     3.588845
    9.990001     0.220547     2.612532     0.424460     3.627675
    10.00000      0.22681      2.63387      0.43982      3.66775
# 
# 04/09/2018 at 16:09 YAMBO @ narro [start]
# 04/09/2018 at 16:09               [end]
#  
# Timing   [Min/Max/Average]: 08s/08s/08s
#
# .-Input file : yambo.in
# | optics                         # [R OPT] Optics
# | bse                            # [R BSE] Bethe Salpeter Equation.
# | bsk                            # [R BSK] Bethe Salpeter Equation kernel
# | bss                            # [R BSS] Bethe Salpeter Equation solver
# | BoseTemp= 0.000000     eV      # Bosonic Temperature
# | FFTGvecs=  3473        RL      # [FFT] Plane-waves
# | BSEmod= "resonant"             # [BSE] resonant/retarded/coupling
# | BSKmod= "Hartree"              # [BSE] IP/Hartree/HF/ALDA/SEX/BSfxc
# | BSSmod= "d"                    # [BSS] (h)aydock/(d)iagonalization/(i)nversion/(t)ddft`
# | BSENGexx=  63          RL      # [BSK] Exchange components
# | % BEnRange
# | -10.00000 | 10.00000 | eV      # [BSS] Energy range
# | %
# | % BDmRange
# |   0.10000 |  0.10000 | eV      # [BSS] Damping range
# | %
# | BEnSteps= 2001                 # [BSS] Energy steps
# | % BLongDir
# | 0.1000E-4 | 0.000    | 0.000    |        # [BSS] [cc] Electric Field
# | %
# | % BSEQptR
# |   1 |  4 |                     # [BSK] Transferred momenta range
# | %
# | % BSEBands
# |   3 | 10 |                     # [BSK] Bands range
# | %
