#                                                           
#  ____  ____     _       ____    ____  ______      ___     
# |_  _||_  _|   / \     |_   \  /   _||_   _ \   ."   `.   
#   \ \  / /    / _ \      |   \/   |    | |_) | /  .-.  \  
#    \ \/ /    / ___ \     | |\  /| |    |  __". | |   | |  
#    _|  |_  _/ /   \ \_  _| |_\/_| |_  _| |__) |\  `-"  /  
#   |______||____| |____||_____||_____||_______/  `.___."   
#                                                           
#                                                           
#                                                           
#        Version 4.3.0 Revision 15338 Hash 3cdf17c          
#                      MPI+SLK Build                        
#                http://www.yambo-code.org                  
#
# Absorption @ Q(3) [iku] : 0.000000  0.000000  0.500000
#
#
# - Energies      are Teter 93(XC)
# - Wavefunctions are Teter 93(XC)
#
# - The Green`s function is Resonant -
#
#   BSK|Identifier              :7789
#      |Dimension               :96
#      |Bands                   :3 - 10
#      |Exchange           [res]: yes
#      |Correlation        [res]: yes
#      |Kernel`s coupling       : no
#      |Exchange           [cpl]: no
#      |Correlation        [cpl]: no
#      |W interaction is bare   : no
#      |ALDA kernel in R-space  : no
#      |RL vectors    [exchange]:51
#      |RL vectors [correlation]:51
#      |E/h energy range    [ev]:-1.000000 - -1.000000
#      |Coupling range     [o/o]: 100.0000 -  100.0000
#    W |Interaction is diagonal : no
#      |Matrix size             :51
#      |Bands                   :1 - 60
#      |e/h energy range    [ev]:-1.000000 - -1.000000
#      |Poles              [o/o]: 100.0000
#      |RL vectors in the sum   :3473
#      |[r,Vnl] included        : yes
#      |Field direction         :0.1000E-4  0.000000  0.000000
#      |Coulomb Cutoff          :none
#      |xc-Kernel               :none
#   RIM|RL components      [col]:0
#      |Random points      [col]:0
#
#    E/ev[1]      EPS-Im[2]    EPS-Re[3]    EPSo-Im[4]   EPSo-Re[5]
#
   -10.00       0.1664E-2     1.300       0.1522E-2     1.286   
   -9.990       0.1666E-2     1.301       0.1524E-2     1.286   
   -9.980       0.1667E-2     1.301       0.1526E-2     1.287   
   -9.970       0.1669E-2     1.301       0.1527E-2     1.287   
   -9.960       0.1671E-2     1.301       0.1529E-2     1.287   
   -9.950       0.1673E-2     1.301       0.1531E-2     1.287   
   -9.940       0.1675E-2     1.301       0.1533E-2     1.287   
   -9.930       0.1677E-2     1.302       0.1534E-2     1.287   
   -9.920       0.1679E-2     1.302       0.1536E-2     1.287   
   -9.910       0.1681E-2     1.302       0.1538E-2     1.288   
   -9.900       0.1683E-2     1.302       0.1539E-2     1.288   
   -9.890       0.1685E-2     1.302       0.1541E-2     1.288   
   -9.880       0.1687E-2     1.302       0.1543E-2     1.288   
   -9.870       0.1689E-2     1.303       0.1545E-2     1.288   
   -9.860       0.1691E-2     1.303       0.1546E-2     1.288   
   -9.850       0.1693E-2     1.303       0.1548E-2     1.289   
   -9.840       0.1694E-2     1.303       0.1550E-2     1.289   
   -9.830       0.1696E-2     1.303       0.1551E-2     1.289   
   -9.820       0.1698E-2     1.304       0.1553E-2     1.289   
   -9.810       0.1700E-2     1.304       0.1555E-2     1.289   
   -9.800       0.1702E-2     1.304       0.1557E-2     1.289   
   -9.790       0.1704E-2     1.304       0.1558E-2     1.289   
   -9.780       0.1706E-2     1.304       0.1560E-2     1.290   
   -9.770       0.1708E-2     1.304       0.1562E-2     1.290   
   -9.760       0.1710E-2     1.305       0.1564E-2     1.290   
   -9.750       0.1712E-2     1.305       0.1565E-2     1.290   
   -9.740       0.1714E-2     1.305       0.1567E-2     1.290   
   -9.730       0.1716E-2     1.305       0.1569E-2     1.290   
   -9.720       0.1718E-2     1.305       0.1571E-2     1.291   
   -9.710       0.1720E-2     1.305       0.1573E-2     1.291   
   -9.700       0.1722E-2     1.306       0.1574E-2     1.291   
   -9.690       0.1724E-2     1.306       0.1576E-2     1.291   
   -9.680       0.1726E-2     1.306       0.1578E-2     1.291   
   -9.670       0.1728E-2     1.306       0.1580E-2     1.291   
   -9.660       0.1730E-2     1.306       0.1581E-2     1.291   
   -9.650       0.1732E-2     1.306       0.1583E-2     1.292   
   -9.640       0.1734E-2     1.307       0.1585E-2     1.292   
   -9.630       0.1736E-2     1.307       0.1587E-2     1.292   
   -9.620       0.1738E-2     1.307       0.1589E-2     1.292   
   -9.610       0.1740E-2     1.307       0.1590E-2     1.292   
   -9.600       0.1742E-2     1.307       0.1592E-2     1.292   
   -9.590       0.1744E-2     1.307       0.1594E-2     1.293   
   -9.580       0.1746E-2     1.308       0.1596E-2     1.293   
   -9.570       0.1749E-2     1.308       0.1598E-2     1.293   
   -9.560       0.1751E-2     1.308       0.1599E-2     1.293   
   -9.550       0.1753E-2     1.308       0.1601E-2     1.293   
   -9.540       0.1755E-2     1.308       0.1603E-2     1.293   
   -9.530       0.1757E-2     1.309       0.1605E-2     1.294   
   -9.520       0.1759E-2     1.309       0.1607E-2     1.294   
   -9.510       0.1761E-2     1.309       0.1609E-2     1.294   
   -9.500       0.1763E-2     1.309       0.1610E-2     1.294   
   -9.490       0.1765E-2     1.309       0.1612E-2     1.294   
   -9.480       0.1767E-2     1.309       0.1614E-2     1.294   
   -9.470       0.1769E-2     1.310       0.1616E-2     1.295   
   -9.460       0.1771E-2     1.310       0.1618E-2     1.295   
   -9.450       0.1773E-2     1.310       0.1620E-2     1.295   
   -9.440       0.1776E-2     1.310       0.1622E-2     1.295   
   -9.430       0.1778E-2     1.310       0.1623E-2     1.295   
   -9.420       0.1780E-2     1.310       0.1625E-2     1.295   
   -9.410       0.1782E-2     1.311       0.1627E-2     1.295   
   -9.400       0.1784E-2     1.311       0.1629E-2     1.296   
   -9.390       0.1786E-2     1.311       0.1631E-2     1.296   
   -9.380       0.1788E-2     1.311       0.1633E-2     1.296   
   -9.370       0.1790E-2     1.311       0.1635E-2     1.296   
   -9.360       0.1792E-2     1.312       0.1637E-2     1.296   
   -9.350       0.1795E-2     1.312       0.1638E-2     1.296   
   -9.340       0.1797E-2     1.312       0.1640E-2     1.297   
   -9.330       0.1799E-2     1.312       0.1642E-2     1.297   
   -9.320       0.1801E-2     1.312       0.1644E-2     1.297   
   -9.310       0.1803E-2     1.312       0.1646E-2     1.297   
   -9.300       0.1805E-2     1.313       0.1648E-2     1.297   
   -9.290       0.1807E-2     1.313       0.1650E-2     1.297   
   -9.280       0.1810E-2     1.313       0.1652E-2     1.298   
   -9.270       0.1812E-2     1.313       0.1654E-2     1.298   
   -9.260       0.1814E-2     1.313       0.1656E-2     1.298   
   -9.250       0.1816E-2     1.314       0.1658E-2     1.298   
   -9.240       0.1818E-2     1.314       0.1659E-2     1.298   
   -9.230       0.1820E-2     1.314       0.1661E-2     1.298   
   -9.220       0.1823E-2     1.314       0.1663E-2     1.299   
   -9.210       0.1825E-2     1.314       0.1665E-2     1.299   
   -9.200       0.1827E-2     1.314       0.1667E-2     1.299   
   -9.190       0.1829E-2     1.315       0.1669E-2     1.299   
   -9.180       0.1831E-2     1.315       0.1671E-2     1.299   
   -9.170       0.1834E-2     1.315       0.1673E-2     1.299   
   -9.160       0.1836E-2     1.315       0.1675E-2     1.300   
   -9.150       0.1838E-2     1.315       0.1677E-2     1.300   
   -9.140       0.1840E-2     1.316       0.1679E-2     1.300   
   -9.130       0.1843E-2     1.316       0.1681E-2     1.300   
   -9.120       0.1845E-2     1.316       0.1683E-2     1.300   
   -9.110       0.1847E-2     1.316       0.1685E-2     1.300   
   -9.100       0.1849E-2     1.316       0.1687E-2     1.301   
   -9.090       0.1851E-2     1.316       0.1689E-2     1.301   
   -9.080       0.1854E-2     1.317       0.1691E-2     1.301   
   -9.070       0.1856E-2     1.317       0.1693E-2     1.301   
   -9.060       0.1858E-2     1.317       0.1695E-2     1.301   
   -9.050       0.1860E-2     1.317       0.1697E-2     1.301   
   -9.040       0.1863E-2     1.317       0.1699E-2     1.302   
   -9.030       0.1865E-2     1.318       0.1701E-2     1.302   
   -9.020       0.1867E-2     1.318       0.1703E-2     1.302   
   -9.010       0.1870E-2     1.318       0.1705E-2     1.302   
   -9.000       0.1872E-2     1.318       0.1707E-2     1.302   
   -8.990       0.1874E-2     1.318       0.1709E-2     1.302   
   -8.980       0.1876E-2     1.319       0.1711E-2     1.303   
   -8.970       0.1879E-2     1.319       0.1713E-2     1.303   
   -8.960       0.1881E-2     1.319       0.1715E-2     1.303   
   -8.950       0.1883E-2     1.319       0.1717E-2     1.303   
   -8.940       0.1886E-2     1.319       0.1719E-2     1.303   
   -8.930       0.1888E-2     1.319       0.1721E-2     1.304   
   -8.920       0.1890E-2     1.320       0.1723E-2     1.304   
   -8.910       0.1892E-2     1.320       0.1725E-2     1.304   
   -8.900       0.1895E-2     1.320       0.1727E-2     1.304   
   -8.890       0.1897E-2     1.320       0.1729E-2     1.304   
   -8.880       0.1899E-2     1.320       0.1731E-2     1.304   
   -8.870       0.1902E-2     1.321       0.1733E-2     1.305   
   -8.860       0.1904E-2     1.321       0.1735E-2     1.305   
   -8.850       0.1906E-2     1.321       0.1737E-2     1.305   
   -8.840       0.1909E-2     1.321       0.1740E-2     1.305   
   -8.830       0.1911E-2     1.321       0.1742E-2     1.305   
   -8.820       0.1914E-2     1.322       0.1744E-2     1.305   
   -8.810       0.1916E-2     1.322       0.1746E-2     1.306   
   -8.800       0.1918E-2     1.322       0.1748E-2     1.306   
   -8.790       0.1921E-2     1.322       0.1750E-2     1.306   
   -8.780       0.1923E-2     1.322       0.1752E-2     1.306   
   -8.770       0.1925E-2     1.322       0.1754E-2     1.306   
   -8.760       0.1928E-2     1.323       0.1756E-2     1.306   
   -8.750       0.1930E-2     1.323       0.1758E-2     1.307   
   -8.740       0.1933E-2     1.323       0.1761E-2     1.307   
   -8.730       0.1935E-2     1.323       0.1763E-2     1.307   
   -8.720       0.1937E-2     1.323       0.1765E-2     1.307   
   -8.710       0.1940E-2     1.324       0.1767E-2     1.307   
   -8.700       0.1942E-2     1.324       0.1769E-2     1.308   
   -8.690       0.1945E-2     1.324       0.1771E-2     1.308   
   -8.680       0.1947E-2     1.324       0.1773E-2     1.308   
   -8.670       0.1949E-2     1.324       0.1775E-2     1.308   
   -8.660       0.1952E-2     1.325       0.1778E-2     1.308   
   -8.650       0.1954E-2     1.325       0.1780E-2     1.308   
   -8.640       0.1957E-2     1.325       0.1782E-2     1.309   
   -8.630       0.1959E-2     1.325       0.1784E-2     1.309   
   -8.620       0.1962E-2     1.325       0.1786E-2     1.309   
   -8.610       0.1964E-2     1.326       0.1788E-2     1.309   
   -8.600       0.1967E-2     1.326       0.1791E-2     1.309   
   -8.590       0.1969E-2     1.326       0.1793E-2     1.309   
   -8.580       0.1971E-2     1.326       0.1795E-2     1.310   
   -8.570       0.1974E-2     1.326       0.1797E-2     1.310   
   -8.560       0.1976E-2     1.327       0.1799E-2     1.310   
   -8.550       0.1979E-2     1.327       0.1802E-2     1.310   
   -8.540       0.1981E-2     1.327       0.1804E-2     1.310   
   -8.530       0.1984E-2     1.327       0.1806E-2     1.311   
   -8.520       0.1986E-2     1.327       0.1808E-2     1.311   
   -8.510       0.1989E-2     1.328       0.1810E-2     1.311   
   -8.500       0.1991E-2     1.328       0.1813E-2     1.311   
   -8.490       0.1994E-2     1.328       0.1815E-2     1.311   
   -8.480       0.1996E-2     1.328       0.1817E-2     1.311   
   -8.470       0.1999E-2     1.328       0.1819E-2     1.312   
   -8.460       0.2001E-2     1.329       0.1821E-2     1.312   
   -8.450       0.2004E-2     1.329       0.1824E-2     1.312   
   -8.440       0.2006E-2     1.329       0.1826E-2     1.312   
   -8.430       0.2009E-2     1.329       0.1828E-2     1.312   
   -8.420       0.2012E-2     1.329       0.1830E-2     1.313   
   -8.410       0.2014E-2     1.330       0.1833E-2     1.313   
   -8.400       0.2017E-2     1.330       0.1835E-2     1.313   
   -8.390       0.2019E-2     1.330       0.1837E-2     1.313   
   -8.380       0.2022E-2     1.330       0.1839E-2     1.313   
   -8.370       0.2024E-2     1.330       0.1842E-2     1.313   
   -8.360       0.2027E-2     1.331       0.1844E-2     1.314   
   -8.350       0.2030E-2     1.331       0.1846E-2     1.314   
   -8.340       0.2032E-2     1.331       0.1849E-2     1.314   
   -8.330       0.2035E-2     1.331       0.1851E-2     1.314   
   -8.320       0.2037E-2     1.331       0.1853E-2     1.314   
   -8.310       0.2040E-2     1.332       0.1855E-2     1.315   
   -8.300       0.2043E-2     1.332       0.1858E-2     1.315   
   -8.290       0.2045E-2     1.332       0.1860E-2     1.315   
   -8.280       0.2048E-2     1.332       0.1862E-2     1.315   
   -8.270       0.2050E-2     1.332       0.1865E-2     1.315   
   -8.260       0.2053E-2     1.333       0.1867E-2     1.316   
   -8.250       0.2056E-2     1.333       0.1869E-2     1.316   
   -8.240       0.2058E-2     1.333       0.1872E-2     1.316   
   -8.230       0.2061E-2     1.333       0.1874E-2     1.316   
   -8.220       0.2064E-2     1.333       0.1876E-2     1.316   
   -8.210       0.2066E-2     1.334       0.1879E-2     1.316   
   -8.200       0.2069E-2     1.334       0.1881E-2     1.317   
   -8.190       0.2072E-2     1.334       0.1883E-2     1.317   
   -8.180       0.2074E-2     1.334       0.1886E-2     1.317   
   -8.170       0.2077E-2     1.334       0.1888E-2     1.317   
   -8.160       0.2080E-2     1.335       0.1890E-2     1.317   
   -8.150       0.2082E-2     1.335       0.1893E-2     1.318   
   -8.140       0.2085E-2     1.335       0.1895E-2     1.318   
   -8.130       0.2088E-2     1.335       0.1898E-2     1.318   
   -8.120       0.2090E-2     1.336       0.1900E-2     1.318   
   -8.110       0.2093E-2     1.336       0.1902E-2     1.318   
   -8.100       0.2096E-2     1.336       0.1905E-2     1.319   
   -8.090       0.2098E-2     1.336       0.1907E-2     1.319   
   -8.080       0.2101E-2     1.336       0.1910E-2     1.319   
   -8.070       0.2104E-2     1.337       0.1912E-2     1.319   
   -8.060       0.2107E-2     1.337       0.1914E-2     1.319   
   -8.050       0.2109E-2     1.337       0.1917E-2     1.319   
   -8.040       0.2112E-2     1.337       0.1919E-2     1.320   
   -8.030       0.2115E-2     1.337       0.1922E-2     1.320   
   -8.020       0.2118E-2     1.338       0.1924E-2     1.320   
   -8.010       0.2120E-2     1.338       0.1926E-2     1.320   
   -8.000       0.2123E-2     1.338       0.1929E-2     1.320   
   -7.990       0.2126E-2     1.338       0.1931E-2     1.321   
   -7.980       0.2129E-2     1.338       0.1934E-2     1.321   
   -7.970       0.2132E-2     1.339       0.1936E-2     1.321   
   -7.960       0.2134E-2     1.339       0.1939E-2     1.321   
   -7.950       0.2137E-2     1.339       0.1941E-2     1.321   
   -7.940       0.2140E-2     1.339       0.1944E-2     1.322   
   -7.930       0.2143E-2     1.340       0.1946E-2     1.322   
   -7.920       0.2146E-2     1.340       0.1949E-2     1.322   
   -7.910       0.2148E-2     1.340       0.1951E-2     1.322   
   -7.900       0.2151E-2     1.340       0.1954E-2     1.322   
   -7.890       0.2154E-2     1.340       0.1956E-2     1.323   
   -7.880       0.2157E-2     1.341       0.1959E-2     1.323   
   -7.870       0.2160E-2     1.341       0.1961E-2     1.323   
   -7.860       0.2163E-2     1.341       0.1964E-2     1.323   
   -7.850       0.2165E-2     1.341       0.1966E-2     1.323   
   -7.840       0.2168E-2     1.341       0.1969E-2     1.324   
   -7.830       0.2171E-2     1.342       0.1971E-2     1.324   
   -7.820       0.2174E-2     1.342       0.1974E-2     1.324   
   -7.810       0.2177E-2     1.342       0.1976E-2     1.324   
   -7.800       0.2180E-2     1.342       0.1979E-2     1.324   
   -7.790       0.2183E-2     1.343       0.1981E-2     1.325   
   -7.780       0.2186E-2     1.343       0.1984E-2     1.325   
   -7.770       0.2188E-2     1.343       0.1986E-2     1.325   
   -7.760       0.2191E-2     1.343       0.1989E-2     1.325   
   -7.750       0.2194E-2     1.343       0.1992E-2     1.325   
   -7.740       0.2197E-2     1.344       0.1994E-2     1.326   
   -7.730       0.2200E-2     1.344       0.1997E-2     1.326   
   -7.720       0.2203E-2     1.344       0.1999E-2     1.326   
   -7.710       0.2206E-2     1.344       0.2002E-2     1.326   
   -7.700       0.2209E-2     1.345       0.2004E-2     1.326   
   -7.690       0.2212E-2     1.345       0.2007E-2     1.327   
   -7.680       0.2215E-2     1.345       0.2010E-2     1.327   
   -7.670       0.2218E-2     1.345       0.2012E-2     1.327   
   -7.660       0.2221E-2     1.345       0.2015E-2     1.327   
   -7.650       0.2224E-2     1.346       0.2018E-2     1.327   
   -7.640       0.2227E-2     1.346       0.2020E-2     1.328   
   -7.630       0.2230E-2     1.346       0.2023E-2     1.328   
   -7.620       0.2233E-2     1.346       0.2025E-2     1.328   
   -7.610       0.2236E-2     1.347       0.2028E-2     1.328   
   -7.600       0.2239E-2     1.347       0.2031E-2     1.328   
   -7.590       0.2242E-2     1.347       0.2033E-2     1.329   
   -7.580       0.2245E-2     1.347       0.2036E-2     1.329   
   -7.570       0.2248E-2     1.347       0.2039E-2     1.329   
   -7.560       0.2251E-2     1.348       0.2041E-2     1.329   
   -7.550       0.2254E-2     1.348       0.2044E-2     1.329   
   -7.540       0.2257E-2     1.348       0.2047E-2     1.330   
   -7.530       0.2260E-2     1.348       0.2049E-2     1.330   
   -7.520       0.2263E-2     1.349       0.2052E-2     1.330   
   -7.510       0.2266E-2     1.349       0.2055E-2     1.330   
   -7.500       0.2269E-2     1.349       0.2057E-2     1.330   
   -7.490       0.2272E-2     1.349       0.2060E-2     1.331   
   -7.480       0.2275E-2     1.349       0.2063E-2     1.331   
   -7.470       0.2278E-2     1.350       0.2066E-2     1.331   
   -7.460       0.2282E-2     1.350       0.2068E-2     1.331   
   -7.450       0.2285E-2     1.350       0.2071E-2     1.331   
   -7.440       0.2288E-2     1.350       0.2074E-2     1.332   
   -7.430       0.2291E-2     1.351       0.2077E-2     1.332   
   -7.420       0.2294E-2     1.351       0.2079E-2     1.332   
   -7.410       0.2297E-2     1.351       0.2082E-2     1.332   
   -7.400       0.2300E-2     1.351       0.2085E-2     1.332   
   -7.390       0.2303E-2     1.352       0.2088E-2     1.333   
   -7.380       0.2307E-2     1.352       0.2090E-2     1.333   
   -7.370       0.2310E-2     1.352       0.2093E-2     1.333   
   -7.360       0.2313E-2     1.352       0.2096E-2     1.333   
   -7.350       0.2316E-2     1.352       0.2099E-2     1.334   
   -7.340       0.2319E-2     1.353       0.2102E-2     1.334   
   -7.330       0.2322E-2     1.353       0.2104E-2     1.334   
   -7.320       0.2326E-2     1.353       0.2107E-2     1.334   
   -7.310       0.2329E-2     1.353       0.2110E-2     1.334   
   -7.300       0.2332E-2     1.354       0.2113E-2     1.335   
   -7.290       0.2335E-2     1.354       0.2116E-2     1.335   
   -7.280       0.2338E-2     1.354       0.2118E-2     1.335   
   -7.270       0.2342E-2     1.354       0.2121E-2     1.335   
   -7.260       0.2345E-2     1.355       0.2124E-2     1.335   
   -7.250       0.2348E-2     1.355       0.2127E-2     1.336   
   -7.240       0.2351E-2     1.355       0.2130E-2     1.336   
   -7.230       0.2355E-2     1.355       0.2133E-2     1.336   
   -7.220       0.2358E-2     1.356       0.2135E-2     1.336   
   -7.210       0.2361E-2     1.356       0.2138E-2     1.337   
   -7.200       0.2364E-2     1.356       0.2141E-2     1.337   
   -7.190       0.2368E-2     1.356       0.2144E-2     1.337   
   -7.180       0.2371E-2     1.356       0.2147E-2     1.337   
   -7.170       0.2374E-2     1.357       0.2150E-2     1.337   
   -7.160       0.2378E-2     1.357       0.2153E-2     1.338   
   -7.150       0.2381E-2     1.357       0.2156E-2     1.338   
   -7.140       0.2384E-2     1.357       0.2159E-2     1.338   
   -7.130       0.2387E-2     1.358       0.2162E-2     1.338   
   -7.120       0.2391E-2     1.358       0.2165E-2     1.338   
   -7.110       0.2394E-2     1.358       0.2167E-2     1.339   
   -7.100       0.2398E-2     1.358       0.2170E-2     1.339   
   -7.090       0.2401E-2     1.359       0.2173E-2     1.339   
   -7.080       0.2404E-2     1.359       0.2176E-2     1.339   
   -7.070       0.2408E-2     1.359       0.2179E-2     1.340   
   -7.060       0.2411E-2     1.359       0.2182E-2     1.340   
   -7.050       0.2414E-2     1.360       0.2185E-2     1.340   
   -7.040       0.2418E-2     1.360       0.2188E-2     1.340   
   -7.030       0.2421E-2     1.360       0.2191E-2     1.340   
   -7.020       0.2425E-2     1.360       0.2194E-2     1.341   
   -7.010       0.2428E-2     1.361       0.2197E-2     1.341   
   -7.000       0.2431E-2     1.361       0.2200E-2     1.341   
   -6.990       0.2435E-2     1.361       0.2203E-2     1.341   
   -6.980       0.2438E-2     1.361       0.2206E-2     1.341   
   -6.970       0.2442E-2     1.362       0.2209E-2     1.342   
   -6.960       0.2445E-2     1.362       0.2212E-2     1.342   
   -6.950       0.2449E-2     1.362       0.2215E-2     1.342   
   -6.940       0.2452E-2     1.362       0.2218E-2     1.342   
   -6.930       0.2456E-2     1.362       0.2221E-2     1.343   
   -6.920       0.2459E-2     1.363       0.2224E-2     1.343   
   -6.910       0.2462E-2     1.363       0.2227E-2     1.343   
   -6.900       0.2466E-2     1.363       0.2231E-2     1.343   
   -6.890       0.2469E-2     1.363       0.2234E-2     1.343   
   -6.880       0.2473E-2     1.364       0.2237E-2     1.344   
   -6.870       0.2477E-2     1.364       0.2240E-2     1.344   
   -6.860       0.2480E-2     1.364       0.2243E-2     1.344   
   -6.850       0.2484E-2     1.364       0.2246E-2     1.344   
   -6.840       0.2487E-2     1.365       0.2249E-2     1.345   
   -6.830       0.2491E-2     1.365       0.2252E-2     1.345   
   -6.820       0.2494E-2     1.365       0.2255E-2     1.345   
   -6.810       0.2498E-2     1.365       0.2258E-2     1.345   
   -6.800       0.2501E-2     1.366       0.2262E-2     1.346   
   -6.790       0.2505E-2     1.366       0.2265E-2     1.346   
   -6.780       0.2509E-2     1.366       0.2268E-2     1.346   
   -6.770       0.2512E-2     1.366       0.2271E-2     1.346   
   -6.760       0.2516E-2     1.367       0.2274E-2     1.346   
   -6.750       0.2519E-2     1.367       0.2277E-2     1.347   
   -6.740       0.2523E-2     1.367       0.2281E-2     1.347   
   -6.730       0.2527E-2     1.367       0.2284E-2     1.347   
   -6.720       0.2530E-2     1.368       0.2287E-2     1.347   
   -6.710       0.2534E-2     1.368       0.2290E-2     1.348   
   -6.700       0.2538E-2     1.368       0.2293E-2     1.348   
   -6.690       0.2541E-2     1.368       0.2297E-2     1.348   
   -6.680       0.2545E-2     1.369       0.2300E-2     1.348   
   -6.670       0.2549E-2     1.369       0.2303E-2     1.348   
   -6.660       0.2552E-2     1.369       0.2306E-2     1.349   
   -6.650       0.2556E-2     1.370       0.2310E-2     1.349   
   -6.640       0.2560E-2     1.370       0.2313E-2     1.349   
   -6.630       0.2563E-2     1.370       0.2316E-2     1.349   
   -6.620       0.2567E-2     1.370       0.2319E-2     1.350   
   -6.610       0.2571E-2     1.371       0.2323E-2     1.350   
   -6.600       0.2575E-2     1.371       0.2326E-2     1.350   
   -6.590       0.2578E-2     1.371       0.2329E-2     1.350   
   -6.580       0.2582E-2     1.371       0.2332E-2     1.351   
   -6.570       0.2586E-2     1.372       0.2336E-2     1.351   
   -6.560       0.2590E-2     1.372       0.2339E-2     1.351   
   -6.550       0.2593E-2     1.372       0.2342E-2     1.351   
   -6.540       0.2597E-2     1.372       0.2346E-2     1.352   
   -6.530       0.2601E-2     1.373       0.2349E-2     1.352   
   -6.520       0.2605E-2     1.373       0.2352E-2     1.352   
   -6.510       0.2609E-2     1.373       0.2356E-2     1.352   
   -6.500       0.2612E-2     1.373       0.2359E-2     1.352   
   -6.490       0.2616E-2     1.374       0.2362E-2     1.353   
   -6.480       0.2620E-2     1.374       0.2366E-2     1.353   
   -6.470       0.2624E-2     1.374       0.2369E-2     1.353   
   -6.460       0.2628E-2     1.374       0.2373E-2     1.353   
   -6.450       0.2632E-2     1.375       0.2376E-2     1.354   
   -6.440       0.2636E-2     1.375       0.2379E-2     1.354   
   -6.430       0.2639E-2     1.375       0.2383E-2     1.354   
   -6.420       0.2643E-2     1.375       0.2386E-2     1.354   
   -6.410       0.2647E-2     1.376       0.2390E-2     1.355   
   -6.400       0.2651E-2     1.376       0.2393E-2     1.355   
   -6.390       0.2655E-2     1.376       0.2397E-2     1.355   
   -6.380       0.2659E-2     1.377       0.2400E-2     1.355   
   -6.370       0.2663E-2     1.377       0.2403E-2     1.356   
   -6.360       0.2667E-2     1.377       0.2407E-2     1.356   
   -6.350       0.2671E-2     1.377       0.2410E-2     1.356   
   -6.340       0.2675E-2     1.378       0.2414E-2     1.356   
   -6.330       0.2679E-2     1.378       0.2417E-2     1.357   
   -6.320       0.2683E-2     1.378       0.2421E-2     1.357   
   -6.310       0.2687E-2     1.378       0.2424E-2     1.357   
   -6.300       0.2691E-2     1.379       0.2428E-2     1.357   
   -6.290       0.2695E-2     1.379       0.2431E-2     1.357   
   -6.280       0.2699E-2     1.379       0.2435E-2     1.358   
   -6.270       0.2703E-2     1.379       0.2438E-2     1.358   
   -6.260       0.2707E-2     1.380       0.2442E-2     1.358   
   -6.250       0.2711E-2     1.380       0.2446E-2     1.358   
   -6.240       0.2715E-2     1.380       0.2449E-2     1.359   
   -6.230       0.2719E-2     1.381       0.2453E-2     1.359   
   -6.220       0.2723E-2     1.381       0.2456E-2     1.359   
   -6.210       0.2727E-2     1.381       0.2460E-2     1.359   
   -6.200       0.2731E-2     1.381       0.2463E-2     1.360   
   -6.190       0.2736E-2     1.382       0.2467E-2     1.360   
   -6.180       0.2740E-2     1.382       0.2471E-2     1.360   
   -6.170       0.2744E-2     1.382       0.2474E-2     1.360   
   -6.160       0.2748E-2     1.382       0.2478E-2     1.361   
   -6.150       0.2752E-2     1.383       0.2482E-2     1.361   
   -6.140       0.2756E-2     1.383       0.2485E-2     1.361   
   -6.130       0.2760E-2     1.383       0.2489E-2     1.361   
   -6.120       0.2765E-2     1.384       0.2492E-2     1.362   
   -6.110       0.2769E-2     1.384       0.2496E-2     1.362   
   -6.100       0.2773E-2     1.384       0.2500E-2     1.362   
   -6.090       0.2777E-2     1.384       0.2504E-2     1.362   
   -6.080       0.2781E-2     1.385       0.2507E-2     1.363   
   -6.070       0.2786E-2     1.385       0.2511E-2     1.363   
   -6.060       0.2790E-2     1.385       0.2515E-2     1.363   
   -6.050       0.2794E-2     1.386       0.2518E-2     1.363   
   -6.040       0.2798E-2     1.386       0.2522E-2     1.364   
   -6.030       0.2803E-2     1.386       0.2526E-2     1.364   
   -6.020       0.2807E-2     1.386       0.2530E-2     1.364   
   -6.010       0.2811E-2     1.387       0.2533E-2     1.364   
   -6.000       0.2816E-2     1.387       0.2537E-2     1.365   
   -5.990       0.2820E-2     1.387       0.2541E-2     1.365   
   -5.980       0.2824E-2     1.388       0.2545E-2     1.365   
   -5.970       0.2828E-2     1.388       0.2548E-2     1.365   
   -5.960       0.2833E-2     1.388       0.2552E-2     1.366   
   -5.950       0.2837E-2     1.388       0.2556E-2     1.366   
   -5.940       0.2842E-2     1.389       0.2560E-2     1.366   
   -5.930       0.2846E-2     1.389       0.2564E-2     1.366   
   -5.920       0.2850E-2     1.389       0.2568E-2     1.367   
   -5.910       0.2855E-2     1.389       0.2571E-2     1.367   
   -5.900       0.2859E-2     1.390       0.2575E-2     1.367   
   -5.890       0.2864E-2     1.390       0.2579E-2     1.367   
   -5.880       0.2868E-2     1.390       0.2583E-2     1.368   
   -5.870       0.2872E-2     1.391       0.2587E-2     1.368   
   -5.860       0.2877E-2     1.391       0.2591E-2     1.368   
   -5.850       0.2881E-2     1.391       0.2595E-2     1.369   
   -5.840       0.2886E-2     1.391       0.2599E-2     1.369   
   -5.830       0.2890E-2     1.392       0.2603E-2     1.369   
   -5.820       0.2895E-2     1.392       0.2606E-2     1.369   
   -5.810       0.2899E-2     1.392       0.2610E-2     1.370   
   -5.800       0.2904E-2     1.393       0.2614E-2     1.370   
   -5.790       0.2908E-2     1.393       0.2618E-2     1.370   
   -5.780       0.2913E-2     1.393       0.2622E-2     1.370   
   -5.770       0.2917E-2     1.394       0.2626E-2     1.371   
   -5.760       0.2922E-2     1.394       0.2630E-2     1.371   
   -5.750       0.2927E-2     1.394       0.2634E-2     1.371   
   -5.740       0.2931E-2     1.394       0.2638E-2     1.371   
   -5.730       0.2936E-2     1.395       0.2642E-2     1.372   
   -5.720       0.2940E-2     1.395       0.2646E-2     1.372   
   -5.710       0.2945E-2     1.395       0.2650E-2     1.372   
   -5.700       0.2950E-2     1.396       0.2654E-2     1.372   
   -5.690       0.2954E-2     1.396       0.2658E-2     1.373   
   -5.680       0.2959E-2     1.396       0.2663E-2     1.373   
   -5.670       0.2963E-2     1.396       0.2667E-2     1.373   
   -5.660       0.2968E-2     1.397       0.2671E-2     1.374   
   -5.650       0.2973E-2     1.397       0.2675E-2     1.374   
   -5.640       0.2978E-2     1.397       0.2679E-2     1.374   
   -5.630       0.2982E-2     1.398       0.2683E-2     1.374   
   -5.620       0.2987E-2     1.398       0.2687E-2     1.375   
   -5.610       0.2992E-2     1.398       0.2691E-2     1.375   
   -5.600       0.2996E-2     1.399       0.2695E-2     1.375   
   -5.590       0.3001E-2     1.399       0.2700E-2     1.375   
   -5.580       0.3006E-2     1.399       0.2704E-2     1.376   
   -5.570       0.3011E-2     1.399       0.2708E-2     1.376   
   -5.560       0.3016E-2     1.400       0.2712E-2     1.376   
   -5.550       0.3020E-2     1.400       0.2716E-2     1.376   
   -5.540       0.3025E-2     1.400       0.2721E-2     1.377   
   -5.530       0.3030E-2     1.401       0.2725E-2     1.377   
   -5.520       0.3035E-2     1.401       0.2729E-2     1.377   
   -5.510       0.3040E-2     1.401       0.2733E-2     1.378   
   -5.500       0.3045E-2     1.402       0.2738E-2     1.378   
   -5.490       0.3049E-2     1.402       0.2742E-2     1.378   
   -5.480       0.3054E-2     1.402       0.2746E-2     1.378   
   -5.470       0.3059E-2     1.402       0.2750E-2     1.379   
   -5.460       0.3064E-2     1.403       0.2755E-2     1.379   
   -5.450       0.3069E-2     1.403       0.2759E-2     1.379   
   -5.440       0.3074E-2     1.403       0.2763E-2     1.380   
   -5.430       0.3079E-2     1.404       0.2768E-2     1.380   
   -5.420       0.3084E-2     1.404       0.2772E-2     1.380   
   -5.410       0.3089E-2     1.404       0.2776E-2     1.380   
   -5.400       0.3094E-2     1.405       0.2781E-2     1.381   
   -5.390       0.3099E-2     1.405       0.2785E-2     1.381   
   -5.380       0.3104E-2     1.405       0.2789E-2     1.381   
   -5.370       0.3109E-2     1.406       0.2794E-2     1.381   
   -5.360       0.3114E-2     1.406       0.2798E-2     1.382   
   -5.350       0.3119E-2     1.406       0.2803E-2     1.382   
   -5.340       0.3124E-2     1.407       0.2807E-2     1.382   
   -5.330       0.3129E-2     1.407       0.2811E-2     1.383   
   -5.320       0.3134E-2     1.407       0.2816E-2     1.383   
   -5.310       0.3139E-2     1.407       0.2820E-2     1.383   
   -5.300       0.3144E-2     1.408       0.2825E-2     1.383   
   -5.290       0.3150E-2     1.408       0.2829E-2     1.384   
   -5.280       0.3155E-2     1.408       0.2834E-2     1.384   
   -5.270       0.3160E-2     1.409       0.2838E-2     1.384   
   -5.260       0.3165E-2     1.409       0.2843E-2     1.385   
   -5.250       0.3170E-2     1.409       0.2847E-2     1.385   
   -5.240       0.3175E-2     1.410       0.2852E-2     1.385   
   -5.230       0.3181E-2     1.410       0.2856E-2     1.385   
   -5.220       0.3186E-2     1.410       0.2861E-2     1.386   
   -5.210       0.3191E-2     1.411       0.2866E-2     1.386   
   -5.200       0.3196E-2     1.411       0.2870E-2     1.386   
   -5.190       0.3202E-2     1.411       0.2875E-2     1.387   
   -5.180       0.3207E-2     1.412       0.2879E-2     1.387   
   -5.170       0.3212E-2     1.412       0.2884E-2     1.387   
   -5.160       0.3217E-2     1.412       0.2889E-2     1.387   
   -5.150       0.3223E-2     1.413       0.2893E-2     1.388   
   -5.140       0.3228E-2     1.413       0.2898E-2     1.388   
   -5.130       0.3233E-2     1.413       0.2903E-2     1.388   
   -5.120       0.3239E-2     1.414       0.2907E-2     1.389   
   -5.110       0.3244E-2     1.414       0.2912E-2     1.389   
   -5.100       0.3250E-2     1.414       0.2917E-2     1.389   
   -5.090       0.3255E-2     1.414       0.2921E-2     1.389   
   -5.080       0.3260E-2     1.415       0.2926E-2     1.390   
   -5.070       0.3266E-2     1.415       0.2931E-2     1.390   
   -5.060       0.3271E-2     1.415       0.2936E-2     1.390   
   -5.050       0.3277E-2     1.416       0.2940E-2     1.391   
   -5.040       0.3282E-2     1.416       0.2945E-2     1.391   
   -5.030       0.3288E-2     1.416       0.2950E-2     1.391   
   -5.020       0.3293E-2     1.417       0.2955E-2     1.391   
   -5.010       0.3299E-2     1.417       0.2960E-2     1.392   
   -5.000       0.3304E-2     1.417       0.2964E-2     1.392   
   -4.990       0.3310E-2     1.418       0.2969E-2     1.392   
   -4.980       0.3315E-2     1.418       0.2974E-2     1.393   
   -4.970       0.3321E-2     1.418       0.2979E-2     1.393   
   -4.960       0.3327E-2     1.419       0.2984E-2     1.393   
   -4.950       0.3332E-2     1.419       0.2989E-2     1.394   
   -4.940       0.3338E-2     1.419       0.2994E-2     1.394   
   -4.930       0.3343E-2     1.420       0.2999E-2     1.394   
   -4.920       0.3349E-2     1.420       0.3004E-2     1.394   
   -4.910       0.3355E-2     1.420       0.3009E-2     1.395   
   -4.900       0.3360E-2     1.421       0.3013E-2     1.395   
   -4.890       0.3366E-2     1.421       0.3018E-2     1.395   
   -4.880       0.3372E-2     1.421       0.3023E-2     1.396   
   -4.870       0.3378E-2     1.422       0.3028E-2     1.396   
   -4.860       0.3383E-2     1.422       0.3033E-2     1.396   
   -4.850       0.3389E-2     1.422       0.3038E-2     1.397   
   -4.840       0.3395E-2     1.423       0.3044E-2     1.397   
   -4.830       0.3401E-2     1.423       0.3049E-2     1.397   
   -4.820       0.3406E-2     1.423       0.3054E-2     1.398   
   -4.810       0.3412E-2     1.424       0.3059E-2     1.398   
   -4.800       0.3418E-2     1.424       0.3064E-2     1.398   
   -4.790       0.3424E-2     1.424       0.3069E-2     1.398   
   -4.780       0.3430E-2     1.425       0.3074E-2     1.399   
   -4.770       0.3436E-2     1.425       0.3079E-2     1.399   
   -4.760       0.3442E-2     1.426       0.3084E-2     1.399   
   -4.750       0.3448E-2     1.426       0.3090E-2     1.400   
   -4.740       0.3453E-2     1.426       0.3095E-2     1.400   
   -4.730       0.3459E-2     1.427       0.3100E-2     1.400   
   -4.720       0.3465E-2     1.427       0.3105E-2     1.401   
   -4.710       0.3471E-2     1.427       0.3110E-2     1.401   
   -4.700       0.3477E-2     1.428       0.3116E-2     1.401   
   -4.690       0.3483E-2     1.428       0.3121E-2     1.402   
   -4.680       0.3489E-2     1.428       0.3126E-2     1.402   
   -4.670       0.3495E-2     1.429       0.3131E-2     1.402   
   -4.660       0.3501E-2     1.429       0.3137E-2     1.402   
   -4.650       0.3508E-2     1.429       0.3142E-2     1.403   
   -4.640       0.3514E-2     1.430       0.3147E-2     1.403   
   -4.630       0.3520E-2     1.430       0.3153E-2     1.403   
   -4.620       0.3526E-2     1.430       0.3158E-2     1.404   
   -4.610       0.3532E-2     1.431       0.3163E-2     1.404   
   -4.600       0.3538E-2     1.431       0.3169E-2     1.404   
   -4.590       0.3544E-2     1.431       0.3174E-2     1.405   
   -4.580       0.3551E-2     1.432       0.3179E-2     1.405   
   -4.570       0.3557E-2     1.432       0.3185E-2     1.405   
   -4.560       0.3563E-2     1.433       0.3190E-2     1.406   
   -4.550       0.3569E-2     1.433       0.3196E-2     1.406   
   -4.540       0.3576E-2     1.433       0.3201E-2     1.406   
   -4.530       0.3582E-2     1.434       0.3207E-2     1.407   
   -4.520       0.3588E-2     1.434       0.3212E-2     1.407   
   -4.510       0.3594E-2     1.434       0.3218E-2     1.407   
   -4.500       0.3601E-2     1.435       0.3223E-2     1.408   
   -4.490       0.3607E-2     1.435       0.3229E-2     1.408   
   -4.480       0.3614E-2     1.435       0.3234E-2     1.408   
   -4.470       0.3620E-2     1.436       0.3240E-2     1.409   
   -4.460       0.3626E-2     1.436       0.3245E-2     1.409   
   -4.450       0.3633E-2     1.436       0.3251E-2     1.409   
   -4.440       0.3639E-2     1.437       0.3257E-2     1.409   
   -4.430       0.3646E-2     1.437       0.3262E-2     1.410   
   -4.420       0.3652E-2     1.438       0.3268E-2     1.410   
   -4.410       0.3659E-2     1.438       0.3274E-2     1.410   
   -4.400       0.3665E-2     1.438       0.3279E-2     1.411   
   -4.390       0.3672E-2     1.439       0.3285E-2     1.411   
   -4.380       0.3678E-2     1.439       0.3291E-2     1.411   
   -4.370       0.3685E-2     1.439       0.3296E-2     1.412   
   -4.360       0.3691E-2     1.440       0.3302E-2     1.412   
   -4.350       0.3698E-2     1.440       0.3308E-2     1.412   
   -4.340       0.3705E-2     1.441       0.3314E-2     1.413   
   -4.330       0.3711E-2     1.441       0.3320E-2     1.413   
   -4.320       0.3718E-2     1.441       0.3325E-2     1.413   
   -4.310       0.3725E-2     1.442       0.3331E-2     1.414   
   -4.300       0.3731E-2     1.442       0.3337E-2     1.414   
   -4.290       0.3738E-2     1.442       0.3343E-2     1.414   
   -4.280       0.3745E-2     1.443       0.3349E-2     1.415   
   -4.270       0.3752E-2     1.443       0.3355E-2     1.415   
   -4.260       0.3758E-2     1.444       0.3361E-2     1.415   
   -4.250       0.3765E-2     1.444       0.3367E-2     1.416   
   -4.240       0.3772E-2     1.444       0.3372E-2     1.416   
   -4.230       0.3779E-2     1.445       0.3378E-2     1.416   
   -4.220       0.3786E-2     1.445       0.3384E-2     1.417   
   -4.210       0.3793E-2     1.445       0.3390E-2     1.417   
   -4.200       0.3799E-2     1.446       0.3396E-2     1.417   
   -4.190       0.3806E-2     1.446       0.3402E-2     1.418   
   -4.180       0.3813E-2     1.447       0.3408E-2     1.418   
   -4.170       0.3820E-2     1.447       0.3415E-2     1.418   
   -4.160       0.3827E-2     1.447       0.3421E-2     1.419   
   -4.150       0.3834E-2     1.448       0.3427E-2     1.419   
   -4.140       0.3841E-2     1.448       0.3433E-2     1.420   
   -4.130       0.3848E-2     1.448       0.3439E-2     1.420   
   -4.120       0.3855E-2     1.449       0.3445E-2     1.420   
   -4.110       0.3862E-2     1.449       0.3451E-2     1.421   
   -4.100       0.3870E-2     1.450       0.3457E-2     1.421   
   -4.090       0.3877E-2     1.450       0.3464E-2     1.421   
   -4.080       0.3884E-2     1.450       0.3470E-2     1.422   
   -4.070       0.3891E-2     1.451       0.3476E-2     1.422   
   -4.060       0.3898E-2     1.451       0.3482E-2     1.422   
   -4.050       0.3905E-2     1.452       0.3489E-2     1.423   
   -4.040       0.3913E-2     1.452       0.3495E-2     1.423   
   -4.030       0.3920E-2     1.452       0.3501E-2     1.423   
   -4.020       0.3927E-2     1.453       0.3508E-2     1.424   
   -4.010       0.3934E-2     1.453       0.3514E-2     1.424   
   -4.000       0.3942E-2     1.454       0.3520E-2     1.424   
   -3.990       0.3949E-2     1.454       0.3527E-2     1.425   
   -3.980       0.3956E-2     1.454       0.3533E-2     1.425   
   -3.970       0.3964E-2     1.455       0.3540E-2     1.425   
   -3.960       0.3971E-2     1.455       0.3546E-2     1.426   
   -3.950       0.3979E-2     1.455       0.3553E-2     1.426   
   -3.940       0.3986E-2     1.456       0.3559E-2     1.427   
   -3.930       0.3994E-2     1.456       0.3565E-2     1.427   
   -3.920       0.4001E-2     1.457       0.3572E-2     1.427   
   -3.910       0.4009E-2     1.457       0.3579E-2     1.428   
   -3.900       0.4016E-2     1.457       0.3585E-2     1.428   
   -3.890       0.4024E-2     1.458       0.3592E-2     1.428   
   -3.880       0.4031E-2     1.458       0.3598E-2     1.429   
   -3.870       0.4039E-2     1.459       0.3605E-2     1.429   
   -3.860       0.4046E-2     1.459       0.3612E-2     1.429   
   -3.850       0.4054E-2     1.460       0.3618E-2     1.430   
   -3.840       0.4062E-2     1.460       0.3625E-2     1.430   
   -3.830       0.4069E-2     1.460       0.3632E-2     1.430   
   -3.820       0.4077E-2     1.461       0.3638E-2     1.431   
   -3.810       0.4085E-2     1.461       0.3645E-2     1.431   
   -3.800       0.4093E-2     1.462       0.3652E-2     1.432   
   -3.790       0.4100E-2     1.462       0.3659E-2     1.432   
   -3.780       0.4108E-2     1.462       0.3665E-2     1.432   
   -3.770       0.4116E-2     1.463       0.3672E-2     1.433   
   -3.760       0.4124E-2     1.463       0.3679E-2     1.433   
   -3.750       0.4132E-2     1.464       0.3686E-2     1.433   
   -3.740       0.4140E-2     1.464       0.3693E-2     1.434   
   -3.730       0.4148E-2     1.464       0.3700E-2     1.434   
   -3.720       0.4156E-2     1.465       0.3707E-2     1.434   
     -3.7100       0.0042       1.4653       0.0037       1.4349
     -3.7000       0.0042       1.4657       0.0037       1.4352
     -3.6900       0.0042       1.4661       0.0037       1.4356
     -3.6800       0.0042       1.4665       0.0037       1.4360
     -3.6700       0.0042       1.4669       0.0037       1.4364
     -3.6600       0.0042       1.4673       0.0037       1.4367
     -3.6500       0.0042       1.4678       0.0038       1.4371
     -3.6400       0.0042       1.4682       0.0038       1.4375
     -3.6300       0.0042       1.4686       0.0038       1.4379
     -3.6200       0.0042       1.4690       0.0038       1.4382
     -3.6100       0.0042       1.4695       0.0038       1.4386
     -3.6000       0.0043       1.4699       0.0038       1.4390
     -3.5900       0.0043       1.4703       0.0038       1.4394
     -3.5800       0.0043       1.4707       0.0038       1.4398
     -3.5700       0.0043       1.4712       0.0038       1.4401
     -3.5600       0.0043       1.4716       0.0038       1.4405
     -3.5500       0.0043       1.4720       0.0038       1.4409
     -3.5400       0.0043       1.4724       0.0038       1.4413
     -3.5300       0.0043       1.4729       0.0038       1.4417
     -3.5200       0.0043       1.4733       0.0038       1.4420
     -3.5100       0.0043       1.4737       0.0039       1.4424
     -3.5000       0.0043       1.4742       0.0039       1.4428
     -3.4900       0.0043       1.4746       0.0039       1.4432
     -3.4800       0.0044       1.4750       0.0039       1.4436
     -3.4700       0.0044       1.4755       0.0039       1.4440
     -3.4600       0.0044       1.4759       0.0039       1.4444
     -3.4500       0.0044       1.4764       0.0039       1.4448
     -3.4400       0.0044       1.4768       0.0039       1.4452
     -3.4300       0.0044       1.4772       0.0039       1.4455
     -3.4200       0.0044       1.4777       0.0039       1.4459
     -3.4100       0.0044       1.4781       0.0039       1.4463
     -3.4000       0.0044       1.4786       0.0039       1.4467
     -3.3900       0.0044       1.4790       0.0039       1.4471
     -3.3800       0.0044       1.4794       0.0040       1.4475
     -3.3700       0.0045       1.4799       0.0040       1.4479
     -3.3600       0.0045       1.4803       0.0040       1.4483
     -3.3500       0.0045       1.4808       0.0040       1.4487
     -3.3400       0.0045       1.4812       0.0040       1.4491
     -3.3300       0.0045       1.4817       0.0040       1.4495
     -3.3200       0.0045       1.4821       0.0040       1.4499
     -3.3100       0.0045       1.4826       0.0040       1.4503
     -3.3000       0.0045       1.4830       0.0040       1.4507
     -3.2900       0.0045       1.4835       0.0040       1.4511
     -3.2800       0.0045       1.4839       0.0040       1.4515
     -3.2700       0.0045       1.4844       0.0040       1.4519
     -3.2600       0.0045       1.4848       0.0040       1.4523
     -3.2500       0.0046       1.4853       0.0041       1.4527
     -3.2400       0.0046       1.4857       0.0041       1.4531
     -3.2300       0.0046       1.4862       0.0041       1.4535
     -3.2200       0.0046       1.4867       0.0041       1.4539
     -3.2100       0.0046       1.4871       0.0041       1.4543
     -3.2000       0.0046       1.4876       0.0041       1.4548
     -3.1900       0.0046       1.4880       0.0041       1.4552
     -3.1800       0.0046       1.4885       0.0041       1.4556
     -3.1700       0.0046       1.4890       0.0041       1.4560
     -3.1600       0.0046       1.4894       0.0041       1.4564
     -3.1500       0.0047       1.4899       0.0041       1.4568
     -3.1400       0.0047       1.4904       0.0041       1.4572
     -3.1300       0.0047       1.4908       0.0042       1.4576
     -3.1200       0.0047       1.4913       0.0042       1.4581
     -3.1100       0.0047       1.4918       0.0042       1.4585
     -3.1000       0.0047       1.4922       0.0042       1.4589
     -3.0900       0.0047       1.4927       0.0042       1.4593
     -3.0800       0.0047       1.4932       0.0042       1.4597
     -3.0700       0.0047       1.4936       0.0042       1.4602
     -3.0600       0.0047       1.4941       0.0042       1.4606
     -3.0500       0.0047       1.4946       0.0042       1.4610
     -3.0400       0.0048       1.4951       0.0042       1.4614
     -3.0300       0.0048       1.4955       0.0042       1.4618
     -3.0200       0.0048       1.4960       0.0042       1.4623
     -3.0100       0.0048       1.4965       0.0043       1.4627
     -3.0000       0.0048       1.4970       0.0043       1.4631
     -2.9900       0.0048       1.4975       0.0043       1.4635
     -2.9800       0.0048       1.4979       0.0043       1.4640
     -2.9700       0.0048       1.4984       0.0043       1.4644
     -2.9600       0.0048       1.4989       0.0043       1.4648
     -2.9500       0.0048       1.4994       0.0043       1.4653
     -2.9400       0.0049       1.4999       0.0043       1.4657
     -2.9300       0.0049       1.5004       0.0043       1.4661
     -2.9200       0.0049       1.5008       0.0043       1.4666
     -2.9100       0.0049       1.5013       0.0043       1.4670
     -2.9000       0.0049       1.5018       0.0044       1.4674
     -2.8900       0.0049       1.5023       0.0044       1.4679
     -2.8800       0.0049       1.5028       0.0044       1.4683
     -2.8700       0.0049       1.5033       0.0044       1.4687
     -2.8600       0.0049       1.5038       0.0044       1.4692
     -2.8500       0.0050       1.5043       0.0044       1.4696
     -2.8400       0.0050       1.5048       0.0044       1.4701
     -2.8300       0.0050       1.5053       0.0044       1.4705
     -2.8200       0.0050       1.5058       0.0044       1.4709
     -2.8100       0.0050       1.5063       0.0044       1.4714
     -2.8000       0.0050       1.5068       0.0044       1.4718
     -2.7900       0.0050       1.5073       0.0045       1.4723
     -2.7800       0.0050       1.5078       0.0045       1.4727
     -2.7700       0.0050       1.5083       0.0045       1.4732
     -2.7600       0.0050       1.5088       0.0045       1.4736
     -2.7500       0.0051       1.5093       0.0045       1.4741
     -2.7400       0.0051       1.5098       0.0045       1.4745
     -2.7300       0.0051       1.5103       0.0045       1.4750
     -2.7200       0.0051       1.5108       0.0045       1.4754
     -2.7100       0.0051       1.5113       0.0045       1.4759
     -2.7000       0.0051       1.5118       0.0045       1.4763
     -2.6900       0.0051       1.5124       0.0046       1.4768
     -2.6800       0.0051       1.5129       0.0046       1.4772
     -2.6700       0.0051       1.5134       0.0046       1.4777
     -2.6600       0.0052       1.5139       0.0046       1.4781
     -2.6500       0.0052       1.5144       0.0046       1.4786
     -2.6400       0.0052       1.5149       0.0046       1.4791
     -2.6300       0.0052       1.5154       0.0046       1.4795
     -2.6200       0.0052       1.5160       0.0046       1.4800
     -2.6100       0.0052       1.5165       0.0046       1.4804
     -2.6000       0.0052       1.5170       0.0046       1.4809
     -2.5900       0.0052       1.5175       0.0047       1.4814
     -2.5800       0.0053       1.5181       0.0047       1.4818
     -2.5700       0.0053       1.5186       0.0047       1.4823
     -2.5600       0.0053       1.5191       0.0047       1.4828
     -2.5500       0.0053       1.5196       0.0047       1.4832
     -2.5400       0.0053       1.5202       0.0047       1.4837
     -2.5300       0.0053       1.5207       0.0047       1.4842
     -2.5200       0.0053       1.5212       0.0047       1.4847
     -2.5100       0.0053       1.5218       0.0047       1.4851
     -2.5000       0.0053       1.5223       0.0047       1.4856
     -2.4900       0.0054       1.5228       0.0048       1.4861
     -2.4800       0.0054       1.5234       0.0048       1.4865
     -2.4700       0.0054       1.5239       0.0048       1.4870
     -2.4600       0.0054       1.5244       0.0048       1.4875
     -2.4500       0.0054       1.5250       0.0048       1.4880
     -2.4400       0.0054       1.5255       0.0048       1.4885
     -2.4300       0.0054       1.5261       0.0048       1.4889
     -2.4200       0.0054       1.5266       0.0048       1.4894
     -2.4100       0.0055       1.5272       0.0048       1.4899
     -2.4000       0.0055       1.5277       0.0048       1.4904
     -2.3900       0.0055       1.5282       0.0049       1.4909
     -2.3800       0.0055       1.5288       0.0049       1.4914
     -2.3700       0.0055       1.5293       0.0049       1.4919
     -2.3600       0.0055       1.5299       0.0049       1.4923
     -2.3500       0.0055       1.5304       0.0049       1.4928
     -2.3400       0.0055       1.5310       0.0049       1.4933
     -2.3300       0.0056       1.5316       0.0049       1.4938
     -2.3200       0.0056       1.5321       0.0049       1.4943
     -2.3100       0.0056       1.5327       0.0049       1.4948
     -2.3000       0.0056       1.5332       0.0050       1.4953
     -2.2900       0.0056       1.5338       0.0050       1.4958
     -2.2800       0.0056       1.5343       0.0050       1.4963
     -2.2700       0.0056       1.5349       0.0050       1.4968
     -2.2600       0.0056       1.5355       0.0050       1.4973
     -2.2500       0.0057       1.5360       0.0050       1.4978
     -2.2400       0.0057       1.5366       0.0050       1.4983
     -2.2300       0.0057       1.5372       0.0050       1.4988
     -2.2200       0.0057       1.5377       0.0050       1.4993
     -2.2100       0.0057       1.5383       0.0051       1.4998
     -2.2000       0.0057       1.5389       0.0051       1.5003
     -2.1900       0.0057       1.5395       0.0051       1.5008
     -2.1800       0.0058       1.5400       0.0051       1.5013
     -2.1700       0.0058       1.5406       0.0051       1.5018
     -2.1600       0.0058       1.5412       0.0051       1.5023
     -2.1500       0.0058       1.5418       0.0051       1.5029
     -2.1400       0.0058       1.5423       0.0051       1.5034
     -2.1300       0.0058       1.5429       0.0052       1.5039
     -2.1200       0.0058       1.5435       0.0052       1.5044
     -2.1100       0.0058       1.5441       0.0052       1.5049
     -2.1000       0.0059       1.5447       0.0052       1.5054
     -2.0900       0.0059       1.5453       0.0052       1.5060
     -2.0800       0.0059       1.5458       0.0052       1.5065
     -2.0700       0.0059       1.5464       0.0052       1.5070
     -2.0600       0.0059       1.5470       0.0052       1.5075
     -2.0500       0.0059       1.5476       0.0052       1.5080
     -2.0400       0.0059       1.5482       0.0053       1.5086
     -2.0300       0.0060       1.5488       0.0053       1.5091
     -2.0200       0.0060       1.5494       0.0053       1.5096
     -2.0100       0.0060       1.5500       0.0053       1.5101
     -2.0000       0.0060       1.5506       0.0053       1.5107
     -1.9900       0.0060       1.5512       0.0053       1.5112
     -1.9800       0.0060       1.5518       0.0053       1.5117
     -1.9700       0.0060       1.5524       0.0053       1.5123
     -1.9600       0.0061       1.5530       0.0054       1.5128
     -1.9500       0.0061       1.5536       0.0054       1.5134
     -1.9400       0.0061       1.5542       0.0054       1.5139
     -1.9300       0.0061       1.5548       0.0054       1.5144
     -1.9200       0.0061       1.5554       0.0054       1.5150
     -1.9100       0.0061       1.5561       0.0054       1.5155
     -1.9000       0.0061       1.5567       0.0054       1.5161
     -1.8900       0.0062       1.5573       0.0055       1.5166
     -1.8800       0.0062       1.5579       0.0055       1.5171
     -1.8700       0.0062       1.5585       0.0055       1.5177
     -1.8600       0.0062       1.5591       0.0055       1.5182
     -1.8500       0.0062       1.5598       0.0055       1.5188
     -1.8400       0.0062       1.5604       0.0055       1.5193
     -1.8300       0.0063       1.5610       0.0055       1.5199
     -1.8200       0.0063       1.5616       0.0055       1.5204
     -1.8100       0.0063       1.5623       0.0056       1.5210
     -1.8000       0.0063       1.5629       0.0056       1.5216
     -1.7900       0.0063       1.5635       0.0056       1.5221
     -1.7800       0.0063       1.5642       0.0056       1.5227
     -1.7700       0.0063       1.5648       0.0056       1.5232
     -1.7600       0.0064       1.5654       0.0056       1.5238
     -1.7500       0.0064       1.5661       0.0056       1.5244
     -1.7400       0.0064       1.5667       0.0057       1.5249
     -1.7300       0.0064       1.5673       0.0057       1.5255
     -1.7200       0.0064       1.5680       0.0057       1.5261
     -1.7100       0.0064       1.5686       0.0057       1.5266
     -1.7000       0.0065       1.5693       0.0057       1.5272
     -1.6900       0.0065       1.5699       0.0057       1.5278
     -1.6800       0.0065       1.5706       0.0057       1.5283
     -1.6700       0.0065       1.5712       0.0058       1.5289
     -1.6600       0.0065       1.5719       0.0058       1.5295
     -1.6500       0.0065       1.5725       0.0058       1.5301
     -1.6400       0.0066       1.5732       0.0058       1.5306
     -1.6300       0.0066       1.5738       0.0058       1.5312
     -1.6200       0.0066       1.5745       0.0058       1.5318
     -1.6100       0.0066       1.5751       0.0058       1.5324
     -1.6000       0.0066       1.5758       0.0059       1.5330
     -1.5900       0.0066       1.5765       0.0059       1.5336
     -1.5800       0.0067       1.5771       0.0059       1.5341
     -1.5700       0.0067       1.5778       0.0059       1.5347
     -1.5600       0.0067       1.5785       0.0059       1.5353
     -1.5500       0.0067       1.5791       0.0059       1.5359
     -1.5400       0.0067       1.5798       0.0059       1.5365
     -1.5300       0.0067       1.5805       0.0060       1.5371
     -1.5200       0.0068       1.5812       0.0060       1.5377
     -1.5100       0.0068       1.5818       0.0060       1.5383
     -1.5000       0.0068       1.5825       0.0060       1.5389
     -1.4900       0.0068       1.5832       0.0060       1.5395
     -1.4800       0.0068       1.5839       0.0060       1.5401
     -1.4700       0.0068       1.5846       0.0060       1.5407
     -1.4600       0.0069       1.5852       0.0061       1.5413
     -1.4500       0.0069       1.5859       0.0061       1.5419
     -1.4400       0.0069       1.5866       0.0061       1.5425
     -1.4300       0.0069       1.5873       0.0061       1.5431
     -1.4200       0.0069       1.5880       0.0061       1.5437
     -1.4100       0.0070       1.5887       0.0061       1.5444
     -1.4000       0.0070       1.5894       0.0062       1.5450
     -1.3900       0.0070       1.5901       0.0062       1.5456
     -1.3800       0.0070       1.5908       0.0062       1.5462
     -1.3700       0.0070       1.5915       0.0062       1.5468
     -1.3600       0.0070       1.5922       0.0062       1.5474
     -1.3500       0.0071       1.5929       0.0062       1.5481
     -1.3400       0.0071       1.5936       0.0063       1.5487
     -1.3300       0.0071       1.5943       0.0063       1.5493
     -1.3200       0.0071       1.5950       0.0063       1.5499
     -1.3100       0.0071       1.5957       0.0063       1.5506
     -1.3000       0.0072       1.5964       0.0063       1.5512
     -1.2900       0.0072       1.5972       0.0063       1.5518
     -1.2800       0.0072       1.5979       0.0064       1.5525
     -1.2700       0.0072       1.5986       0.0064       1.5531
     -1.2600       0.0072       1.5993       0.0064       1.5537
     -1.2500       0.0073       1.6000       0.0064       1.5544
     -1.2400       0.0073       1.6008       0.0064       1.5550
     -1.2300       0.0073       1.6015       0.0064       1.5557
     -1.2200       0.0073       1.6022       0.0065       1.5563
     -1.2100       0.0073       1.6030       0.0065       1.5570
     -1.2000       0.0074       1.6037       0.0065       1.5576
     -1.1900       0.0074       1.6044       0.0065       1.5583
     -1.1800       0.0074       1.6052       0.0065       1.5589
     -1.1700       0.0074       1.6059       0.0065       1.5596
     -1.1600       0.0074       1.6067       0.0066       1.5602
     -1.1500       0.0075       1.6074       0.0066       1.5609
     -1.1400       0.0075       1.6081       0.0066       1.5615
     -1.1300       0.0075       1.6089       0.0066       1.5622
     -1.1200       0.0075       1.6096       0.0066       1.5629
     -1.1100       0.0075       1.6104       0.0067       1.5635
     -1.1000       0.0076       1.6112       0.0067       1.5642
     -1.0900       0.0076       1.6119       0.0067       1.5649
     -1.0800       0.0076       1.6127       0.0067       1.5655
     -1.0700       0.0076       1.6134       0.0067       1.5662
     -1.0600       0.0076       1.6142       0.0067       1.5669
     -1.0500       0.0077       1.6150       0.0068       1.5675
     -1.0400       0.0077       1.6157       0.0068       1.5682
     -1.0300       0.0077       1.6165       0.0068       1.5689
     -1.0200       0.0077       1.6173       0.0068       1.5696
     -1.0100       0.0077       1.6180       0.0068       1.5703
     -1.0000       0.0078       1.6188       0.0069       1.5709
     -0.9900       0.0078       1.6196       0.0069       1.5716
     -0.9800       0.0078       1.6204       0.0069       1.5723
     -0.9700       0.0078       1.6212       0.0069       1.5730
     -0.9600       0.0079       1.6219       0.0069       1.5737
     -0.9500       0.0079       1.6227       0.0070       1.5744
     -0.9400       0.0079       1.6235       0.0070       1.5751
     -0.9300       0.0079       1.6243       0.0070       1.5758
     -0.9200       0.0079       1.6251       0.0070       1.5765
     -0.9100       0.0080       1.6259       0.0070       1.5772
     -0.9000       0.0080       1.6267       0.0070       1.5779
     -0.8900       0.0080       1.6275       0.0071       1.5786
     -0.8800       0.0080       1.6283       0.0071       1.5793
     -0.8700       0.0081       1.6291       0.0071       1.5800
     -0.8600       0.0081       1.6299       0.0071       1.5807
     -0.8500       0.0081       1.6307       0.0071       1.5814
     -0.8400       0.0081       1.6315       0.0072       1.5822
     -0.8300       0.0082       1.6323       0.0072       1.5829
     -0.8200       0.0082       1.6332       0.0072       1.5836
     -0.8100       0.0082       1.6340       0.0072       1.5843
     -0.8000       0.0082       1.6348       0.0073       1.5850
     -0.7900       0.0083       1.6356       0.0073       1.5858
     -0.7800       0.0083       1.6364       0.0073       1.5865
     -0.7700       0.0083       1.6373       0.0073       1.5872
     -0.7600       0.0083       1.6381       0.0073       1.5880
     -0.7500       0.0083       1.6389       0.0074       1.5887
     -0.7400       0.0084       1.6398       0.0074       1.5894
     -0.7300       0.0084       1.6406       0.0074       1.5902
     -0.7200       0.0084       1.6415       0.0074       1.5909
     -0.7100       0.0084       1.6423       0.0074       1.5916
     -0.7000       0.0085       1.6431       0.0075       1.5924
     -0.6900       0.0085       1.6440       0.0075       1.5931
     -0.6800       0.0085       1.6448       0.0075       1.5939
     -0.6700       0.0085       1.6457       0.0075       1.5946
     -0.6600       0.0086       1.6465       0.0076       1.5954
     -0.6500       0.0086       1.6474       0.0076       1.5962
     -0.6400       0.0086       1.6483       0.0076       1.5969
     -0.6300       0.0087       1.6491       0.0076       1.5977
     -0.6200       0.0087       1.6500       0.0076       1.5984
     -0.6100       0.0087       1.6509       0.0077       1.5992
     -0.6000       0.0087       1.6517       0.0077       1.6000
     -0.5900       0.0088       1.6526       0.0077       1.6007
     -0.5800       0.0088       1.6535       0.0077       1.6015
     -0.5700       0.0088       1.6544       0.0078       1.6023
     -0.5600       0.0088       1.6552       0.0078       1.6031
     -0.5500       0.0089       1.6561       0.0078       1.6038
     -0.5400       0.0089       1.6570       0.0078       1.6046
     -0.5300       0.0089       1.6579       0.0079       1.6054
     -0.5200       0.0089       1.6588       0.0079       1.6062
     -0.5100       0.0090       1.6597       0.0079       1.6070
     -0.5000       0.0090       1.6606       0.0079       1.6078
     -0.4900       0.0090       1.6615       0.0080       1.6086
     -0.4800       0.0091       1.6624       0.0080       1.6094
     -0.4700       0.0091       1.6633       0.0080       1.6102
     -0.4600       0.0091       1.6642       0.0080       1.6110
     -0.4500       0.0091       1.6651       0.0081       1.6118
     -0.4400       0.0092       1.6660       0.0081       1.6126
     -0.4300       0.0092       1.6670       0.0081       1.6134
     -0.4200       0.0092       1.6679       0.0081       1.6142
     -0.4100       0.0093       1.6688       0.0082       1.6150
     -0.4000       0.0093       1.6697       0.0082       1.6158
     -0.3900       0.0093       1.6707       0.0082       1.6166
     -0.3800       0.0093       1.6716       0.0082       1.6175
     -0.3700       0.0094       1.6725       0.0083       1.6183
     -0.3600       0.0094       1.6735       0.0083       1.6191
     -0.3500       0.0094       1.6744       0.0083       1.6199
     -0.3400       0.0095       1.6754       0.0083       1.6208
     -0.3300       0.0095       1.6763       0.0084       1.6216
     -0.3200       0.0095       1.6773       0.0084       1.6224
     -0.3100       0.0096       1.6782       0.0084       1.6233
     -0.3000       0.0096       1.6792       0.0084       1.6241
     -0.2900       0.0096       1.6801       0.0085       1.6250
     -0.2800       0.0096       1.6811       0.0085       1.6258
     -0.2700       0.0097       1.6820       0.0085       1.6267
     -0.2600       0.0097       1.6830       0.0085       1.6275
     -0.2500       0.0097       1.6840       0.0086       1.6284
     -0.2400       0.0098       1.6850       0.0086       1.6292
     -0.2300       0.0098       1.6859       0.0086       1.6301
     -0.2200       0.0098       1.6869       0.0087       1.6310
     -0.2100       0.0099       1.6879       0.0087       1.6318
     -0.2000       0.0099       1.6889       0.0087       1.6327
     -0.1900       0.0099       1.6899       0.0087       1.6336
     -0.1800       0.0100       1.6909       0.0088       1.6344
     -0.1700       0.0100       1.6919       0.0088       1.6353
     -0.1600       0.0100       1.6929       0.0088       1.6362
     -0.1500       0.0101       1.6939       0.0089       1.6371
     -0.1400       0.0101       1.6949       0.0089       1.6380
     -0.1300       0.0101       1.6959       0.0089       1.6389
     -0.1200       0.0102       1.6969       0.0089       1.6398
     -0.1100       0.0102       1.6979       0.0090       1.6407
     -0.1000       0.0102       1.6989       0.0090       1.6416
     -0.0900       0.0103       1.7000       0.0090       1.6425
     -0.0800       0.0103       1.7010       0.0091       1.6434
     -0.0700       0.0103       1.7020       0.0091       1.6443
     -0.0600       0.0104       1.7031       0.0091       1.6452
     -0.0500       0.0104       1.7041       0.0092       1.6461
     -0.0400       0.0104       1.7051       0.0092       1.6470
     -0.0300       0.0105       1.7062       0.0092       1.6479
     -0.0200       0.0105       1.7072       0.0093       1.6489
     -0.0100       0.0105       1.7083       0.0093       1.6498
      0.0000       0.0106       1.7093       0.0093       1.6507
      0.0100       0.0106       1.7104       0.0093       1.6516
      0.0200       0.0107       1.7115       0.0094       1.6526
      0.0300       0.0107       1.7125       0.0094       1.6535
      0.0400       0.0107       1.7136       0.0094       1.6545
      0.0500       0.0108       1.7147       0.0095       1.6554
      0.0600       0.0108       1.7158       0.0095       1.6564
      0.0700       0.0108       1.7168       0.0095       1.6573
      0.0800       0.0109       1.7179       0.0096       1.6583
      0.0900       0.0109       1.7190       0.0096       1.6592
      0.1000       0.0110       1.7201       0.0096       1.6602
      0.1100       0.0110       1.7212       0.0097       1.6611
      0.1200       0.0110       1.7223       0.0097       1.6621
      0.1300       0.0111       1.7234       0.0097       1.6631
      0.1400       0.0111       1.7245       0.0098       1.6641
      0.1500       0.0111       1.7256       0.0098       1.6650
      0.1600       0.0112       1.7267       0.0098       1.6660
      0.1700       0.0112       1.7279       0.0099       1.6670
      0.1800       0.0113       1.7290       0.0099       1.6680
      0.1900       0.0113       1.7301       0.0100       1.6690
      0.2000       0.0113       1.7312       0.0100       1.6700
     0.21000      0.01139      1.73238      0.01003      1.67099
     0.22000      0.01143      1.73352      0.01006      1.67199
     0.23000      0.01147      1.73466      0.01010      1.67300
     0.24000      0.01151      1.73581      0.01013      1.67401
     0.25000      0.01155      1.73696      0.01017      1.67502
     0.26000      0.01159      1.73812      0.01021      1.67604
     0.27000      0.01163      1.73928      0.01025      1.67707
     0.28000      0.01168      1.74044      0.01028      1.67809
     0.29000      0.01172      1.74161      0.01032      1.67912
     0.30000      0.01176      1.74279      0.01036      1.68015
     0.31000      0.01180      1.74396      0.01040      1.68119
     0.32000      0.01185      1.74514      0.01043      1.68223
     0.33000      0.01189      1.74633      0.01047      1.68327
     0.34000      0.01193      1.74752      0.01051      1.68432
     0.35000      0.01198      1.74872      0.01055      1.68538
     0.36000      0.01202      1.74991      0.01059      1.68643
     0.37000      0.01207      1.75112      0.01063      1.68749
     0.38000      0.01211      1.75233      0.01067      1.68856
     0.39000      0.01216      1.75354      0.01071      1.68962
     0.40000      0.01220      1.75476      0.01075      1.69070
     0.41000      0.01225      1.75598      0.01079      1.69177
     0.42000      0.01229      1.75720      0.01083      1.69285
     0.43000      0.01234      1.75843      0.01087      1.69394
     0.44000      0.01239      1.75967      0.01091      1.69502
     0.45000      0.01243      1.76091      0.01095      1.69612
     0.46000      0.01248      1.76216      0.01100      1.69721
     0.47000      0.01253      1.76340      0.01104      1.69831
     0.48000      0.01258      1.76466      0.01108      1.69942
     0.49000      0.01262      1.76592      0.01112      1.70053
     0.50000      0.01267      1.76718      0.01117      1.70164
     0.51000      0.01272      1.76845      0.01121      1.70276
     0.52000      0.01277      1.76972      0.01125      1.70388
     0.53000      0.01282      1.77100      0.01130      1.70501
     0.54000      0.01287      1.77229      0.01134      1.70614
     0.55000      0.01292      1.77357      0.01138      1.70727
     0.56000      0.01297      1.77487      0.01143      1.70841
     0.57000      0.01302      1.77617      0.01147      1.70956
     0.58000      0.01307      1.77747      0.01152      1.71071
     0.59000      0.01312      1.77878      0.01156      1.71186
     0.60000      0.01317      1.78009      0.01161      1.71302
     0.61000      0.01323      1.78141      0.01166      1.71418
     0.62000      0.01328      1.78273      0.01170      1.71535
     0.63000      0.01333      1.78406      0.01175      1.71652
     0.64000      0.01338      1.78540      0.01180      1.71769
     0.65000      0.01344      1.78674      0.01184      1.71887
     0.66000      0.01349      1.78808      0.01189      1.72006
     0.67000      0.01354      1.78943      0.01194      1.72125
     0.68000      0.01360      1.79079      0.01199      1.72245
     0.69000      0.01365      1.79215      0.01203      1.72365
     0.70000      0.01371      1.79352      0.01208      1.72485
     0.71000      0.01376      1.79489      0.01213      1.72606
     0.72000      0.01382      1.79627      0.01218      1.72727
     0.73000      0.01387      1.79765      0.01223      1.72849
     0.74000      0.01393      1.79904      0.01228      1.72972
     0.75000      0.01399      1.80043      0.01233      1.73095
     0.76000      0.01404      1.80183      0.01238      1.73218
     0.77000      0.01410      1.80324      0.01244      1.73342
     0.78000      0.01416      1.80465      0.01249      1.73467
     0.79000      0.01422      1.80607      0.01254      1.73592
     0.80000      0.01428      1.80749      0.01259      1.73717
     0.81000      0.01434      1.80892      0.01264      1.73843
     0.82000      0.01440      1.81036      0.01270      1.73970
     0.83000      0.01446      1.81180      0.01275      1.74097
     0.84000      0.01452      1.81325      0.01280      1.74225
     0.85000      0.01458      1.81470      0.01286      1.74353
     0.86000      0.01464      1.81616      0.01291      1.74482
     0.87000      0.01470      1.81762      0.01297      1.74611
     0.88000      0.01476      1.81910      0.01302      1.74741
     0.89000      0.01482      1.82057      0.01308      1.74871
     0.90000      0.01489      1.82206      0.01314      1.75002
     0.91000      0.01495      1.82355      0.01319      1.75134
     0.92000      0.01501      1.82504      0.01325      1.75266
     0.93000      0.01508      1.82655      0.01331      1.75398
     0.94000      0.01514      1.82806      0.01337      1.75532
     0.95000      0.01521      1.82957      0.01342      1.75665
     0.96000      0.01527      1.83110      0.01348      1.75800
     0.97000      0.01534      1.83263      0.01354      1.75935
     0.98000      0.01541      1.83416      0.01360      1.76070
     0.99000      0.01547      1.83570      0.01366      1.76206
     1.00000      0.01554      1.83725      0.01372      1.76343
     1.01000      0.01561      1.83881      0.01378      1.76481
     1.02000      0.01568      1.84037      0.01384      1.76618
     1.03000      0.01575      1.84194      0.01391      1.76757
     1.04000      0.01582      1.84352      0.01397      1.76896
     1.05000      0.01589      1.84510      0.01403      1.77036
     1.06000      0.01596      1.84669      0.01409      1.77177
     1.07000      0.01603      1.84829      0.01416      1.77318
     1.08000      0.01610      1.84989      0.01422      1.77459
     1.09000      0.01617      1.85150      0.01429      1.77602
     1.10000      0.01624      1.85312      0.01435      1.77745
     1.11000      0.01632      1.85475      0.01442      1.77889
     1.12000      0.01639      1.85638      0.01448      1.78033
     1.13000      0.01646      1.85802      0.01455      1.78178
     1.14000      0.01654      1.85967      0.01462      1.78324
     1.15000      0.01661      1.86133      0.01469      1.78470
     1.16000      0.01669      1.86299      0.01475      1.78617
     1.17000      0.01677      1.86466      0.01482      1.78765
     1.18000      0.01684      1.86634      0.01489      1.78913
     1.19000      0.01692      1.86803      0.01496      1.79062
     1.20000      0.01700      1.86972      0.01503      1.79212
     1.21000      0.01708      1.87142      0.01510      1.79362
     1.22000      0.01716      1.87313      0.01517      1.79514
     1.23000      0.01724      1.87485      0.01525      1.79665
     1.24000      0.01732      1.87658      0.01532      1.79818
     1.25000      0.01740      1.87831      0.01539      1.79971
     1.26000      0.01748      1.88005      0.01547      1.80126
     1.27000      0.01756      1.88180      0.01554      1.80280
     1.28000      0.01765      1.88356      0.01562      1.80436
     1.29000      0.01773      1.88533      0.01569      1.80592
     1.30000      0.01782      1.88710      0.01577      1.80749
     1.31000      0.01790      1.88889      0.01585      1.80907
     1.32000      0.01799      1.89068      0.01592      1.81066
     1.33000      0.01807      1.89248      0.01600      1.81225
     1.34000      0.01816      1.89429      0.01608      1.81385
     1.35000      0.01825      1.89611      0.01616      1.81546
     1.36000      0.01834      1.89793      0.01624      1.81708
     1.37000      0.01843      1.89977      0.01632      1.81871
     1.38000      0.01852      1.90162      0.01640      1.82034
     1.39000      0.01861      1.90347      0.01648      1.82198
     1.40000      0.01870      1.90533      0.01657      1.82363
     1.41000      0.01879      1.90720      0.01665      1.82529
     1.42000      0.01888      1.90909      0.01673      1.82696
     1.43000      0.01898      1.91098      0.01682      1.82863
     1.44000      0.01907      1.91288      0.01691      1.83032
     1.45000      0.01917      1.91478      0.01699      1.83201
     1.46000      0.01926      1.91670      0.01708      1.83371
     1.47000      0.01936      1.91863      0.01717      1.83542
     1.48000      0.01946      1.92057      0.01726      1.83714
     1.49000      0.01956      1.92252      0.01735      1.83887
     1.50000      0.01966      1.92448      0.01744      1.84060
     1.51000      0.01976      1.92644      0.01753      1.84235
     1.52000      0.01986      1.92842      0.01762      1.84410
     1.53000      0.01996      1.93041      0.01771      1.84587
     1.54000      0.02006      1.93241      0.01780      1.84764
     1.55000      0.02016      1.93442      0.01790      1.84942
     1.56000      0.02027      1.93643      0.01799      1.85121
     1.57000      0.02037      1.93846      0.01809      1.85302
     1.58000      0.02048      1.94050      0.01819      1.85483
     1.59000      0.02059      1.94255      0.01828      1.85665
     1.60000      0.02070      1.94462      0.01838      1.85848
     1.61000      0.02080      1.94669      0.01848      1.86032
     1.62000      0.02091      1.94877      0.01858      1.86217
     1.63000      0.02103      1.95086      0.01868      1.86403
     1.64000      0.02114      1.95297      0.01879      1.86590
     1.65000      0.02125      1.95508      0.01889      1.86778
     1.66000      0.02136      1.95721      0.01899      1.86967
     1.67000      0.02148      1.95935      0.01910      1.87157
     1.68000      0.02159      1.96150      0.01920      1.87348
     1.69000      0.02171      1.96366      0.01931      1.87541
     1.70000      0.02183      1.96584      0.01942      1.87734
     1.71000      0.02195      1.96802      0.01953      1.87928
     1.72000      0.02207      1.97022      0.01964      1.88124
     1.73000      0.02219      1.97243      0.01975      1.88320
     1.74000      0.02231      1.97465      0.01986      1.88518
     1.75000      0.02243      1.97688      0.01997      1.88717
     1.76000      0.02256      1.97913      0.02009      1.88917
     1.77000      0.02268      1.98139      0.02020      1.89118
     1.78000      0.02281      1.98366      0.02032      1.89320
     1.79000      0.02294      1.98594      0.02044      1.89524
     1.80000      0.02307      1.98824      0.02056      1.89728
     1.81000      0.02320      1.99055      0.02068      1.89934
     1.82000      0.02333      1.99287      0.02080      1.90141
     1.83000      0.02346      1.99520      0.02092      1.90349
     1.84000      0.02360      1.99755      0.02104      1.90559
     1.85000      0.02373      1.99992      0.02117      1.90769
     1.86000      0.02387      2.00229      0.02129      1.90981
     1.87000      0.02401      2.00468      0.02142      1.91194
     1.88000      0.02415      2.00708      0.02155      1.91409
     1.89000      0.02429      2.00950      0.02168      1.91625
     1.90000      0.02443      2.01193      0.02181      1.91842
     1.91000      0.02457      2.01438      0.02194      1.92060
     1.92000      0.02471      2.01684      0.02208      1.92280
     1.93000      0.02486      2.01931      0.02221      1.92500
     1.94000      0.02501      2.02180      0.02235      1.92723
     1.95000      0.02516      2.02430      0.02249      1.92947
     1.96000      0.02531      2.02682      0.02263      1.93172
     1.97000      0.02546      2.02935      0.02277      1.93398
     1.98000      0.02561      2.03190      0.02291      1.93626
     1.99000      0.02577      2.03447      0.02305      1.93855
     2.00000      0.02592      2.03705      0.02320      1.94086
     2.01000      0.02608      2.03964      0.02334      1.94318
     2.02000      0.02624      2.04225      0.02349      1.94552
     2.03000      0.02640      2.04488      0.02364      1.94787
     2.04000      0.02656      2.04752      0.02379      1.95024
     2.05000      0.02673      2.05018      0.02395      1.95262
     2.06000      0.02689      2.05286      0.02410      1.95501
     2.07000      0.02706      2.05555      0.02426      1.95743
     2.08000      0.02723      2.05826      0.02441      1.95985
     2.09000      0.02740      2.06098      0.02457      1.96230
     2.10000      0.02758      2.06373      0.02474      1.96476
     2.11000      0.02775      2.06649      0.02490      1.96723
     2.12000      0.02793      2.06926      0.02506      1.96973
     2.13000      0.02811      2.07206      0.02523      1.97223
     2.14000      0.02829      2.07487      0.02540      1.97476
     2.15000      0.02847      2.07770      0.02557      1.97730
     2.16000      0.02865      2.08055      0.02574      1.97986
     2.17000      0.02884      2.08342      0.02592      1.98244
     2.18000      0.02903      2.08631      0.02609      1.98503
     2.19000      0.02922      2.08921      0.02627      1.98764
     2.20000      0.02941      2.09214      0.02645      1.99027
     2.21000      0.02960      2.09508      0.02663      1.99292
     2.22000      0.02980      2.09804      0.02682      1.99558
     2.23000      0.03000      2.10103      0.02701      1.99827
     2.24000      0.03020      2.10403      0.02719      2.00097
     2.25000      0.03040      2.10705      0.02739      2.00369
     2.26000      0.03061      2.11009      0.02758      2.00643
     2.27000      0.03082      2.11316      0.02777      2.00919
     2.28000      0.03103      2.11624      0.02797      2.01197
     2.29000      0.03124      2.11935      0.02817      2.01477
     2.30000      0.03145      2.12247      0.02837      2.01759
     2.31000      0.03167      2.12562      0.02858      2.02043
     2.32000      0.03189      2.12879      0.02879      2.02329
     2.33000      0.03211      2.13198      0.02900      2.02617
     2.34000      0.03234      2.13520      0.02921      2.02907
     2.35000      0.03256      2.13843      0.02942      2.03200
     2.36000      0.03279      2.14169      0.02964      2.03494
     2.37000      0.03303      2.14497      0.02986      2.03791
     2.38000      0.03326      2.14828      0.03009      2.04090
     2.39000      0.03350      2.15161      0.03031      2.04391
     2.40000      0.03374      2.15496      0.03054      2.04694
     2.41000      0.03399      2.15833      0.03077      2.04999
     2.42000      0.03423      2.16174      0.03101      2.05307
     2.43000      0.03449      2.16516      0.03124      2.05618
     2.44000      0.03474      2.16861      0.03148      2.05930
     2.45000      0.03500      2.17209      0.03173      2.06245
     2.46000      0.03526      2.17559      0.03197      2.06563
     2.47000      0.03552      2.17911      0.03222      2.06883
     2.48000      0.03579      2.18267      0.03248      2.07205
     2.49000      0.03606      2.18625      0.03273      2.07530
     2.50000      0.03633      2.18985      0.03299      2.07857
     2.51000      0.03661      2.19349      0.03325      2.08187
     2.52000      0.03689      2.19714      0.03352      2.08520
     2.53000      0.03717      2.20083      0.03379      2.08856
     2.54000      0.03746      2.20455      0.03406      2.09194
     2.55000      0.03776      2.20829      0.03434      2.09534
     2.56000      0.03805      2.21206      0.03462      2.09878
     2.57000      0.03835      2.21586      0.03491      2.10224
     2.58000      0.03865      2.21969      0.03520      2.10574
     2.59000      0.03896      2.22355      0.03549      2.10926
     2.60000      0.03927      2.22743      0.03578      2.11281
     2.61000      0.03958      2.23135      0.03609      2.11639
     2.62000      0.03990      2.23530      0.03639      2.12000
     2.63000      0.04022      2.23928      0.03670      2.12364
     2.64000      0.04054      2.24330      0.03701      2.12731
     2.65000      0.04087      2.24735      0.03733      2.13101
     2.66000      0.04120      2.25143      0.03765      2.13474
     2.67000      0.04153      2.25555      0.03798      2.13851
     2.68000      0.04187      2.25970      0.03831      2.14231
     2.69000      0.04222      2.26388      0.03865      2.14614
     2.70000      0.04257      2.26810      0.03899      2.15000
     2.71000      0.04292      2.27236      0.03933      2.15390
     2.72000      0.04329      2.27665      0.03969      2.15784
     2.73000      0.04365      2.28097      0.04004      2.16181
     2.74000      0.04403      2.28534      0.04040      2.16581
     2.75000      0.04440      2.28974      0.04077      2.16985
     2.76000      0.04479      2.29418      0.04114      2.17393
     2.77000      0.04518      2.29866      0.04152      2.17804
     2.78000      0.04557      2.30318      0.04191      2.18220
     2.79000      0.04597      2.30773      0.04230      2.18639
     2.80000      0.04638      2.31233      0.04269      2.19062
     2.81000      0.04680      2.31697      0.04309      2.19488
     2.82000      0.04722      2.32164      0.04350      2.19919
     2.83000      0.04764      2.32636      0.04391      2.20354
     2.84000      0.04808      2.33113      0.04434      2.20793
     2.85000      0.04852      2.33593      0.04476      2.21236
     2.86000      0.04897      2.34078      0.04520      2.21684
     2.87000      0.04942      2.34568      0.04564      2.22136
     2.88000      0.04989      2.35062      0.04609      2.22592
     2.89000      0.05036      2.35560      0.04654      2.23053
     2.90000      0.05084      2.36063      0.04700      2.23518
     2.91000      0.05133      2.36571      0.04747      2.23988
     2.92000      0.05182      2.37084      0.04795      2.24462
     2.93000      0.05233      2.37602      0.04844      2.24941
     2.94000      0.05284      2.38125      0.04893      2.25426
     2.95000      0.05336      2.38652      0.04943      2.25915
     2.96000      0.05390      2.39185      0.04994      2.26409
     2.97000      0.05444      2.39724      0.05046      2.26908
     2.98000      0.05500      2.40267      0.05099      2.27412
     2.99000      0.05556      2.40816      0.05153      2.27922
     3.00000      0.05614      2.41371      0.05207      2.28436
     3.01000      0.05672      2.41931      0.05263      2.28957
     3.02000      0.05732      2.42497      0.05319      2.29483
     3.03000      0.05794      2.43068      0.05377      2.30014
     3.04000      0.05856      2.43646      0.05435      2.30551
     3.05000      0.05920      2.44230      0.05495      2.31094
     3.06000      0.05986      2.44820      0.05555      2.31643
     3.07000      0.06053      2.45416      0.05617      2.32198
     3.08000      0.06122      2.46019      0.05680      2.32759
     3.09000      0.06192      2.46628      0.05744      2.33326
     3.10000      0.06264      2.47244      0.05809      2.33900
     3.11000      0.06339      2.47867      0.05875      2.34480
     3.12000      0.06415      2.48496      0.05943      2.35067
     3.13000      0.06494      2.49133      0.06012      2.35660
     3.14000      0.06575      2.49777      0.06082      2.36261
     3.15000      0.06659      2.50428      0.06153      2.36868
     3.16000      0.06746      2.51087      0.06226      2.37482
     3.17000      0.06835      2.51753      0.06301      2.38104
     3.18000      0.06929      2.52427      0.06376      2.38733
     3.19000      0.07026      2.53109      0.06453      2.39369
     3.20000      0.07127      2.53799      0.06532      2.40013
     3.21000      0.07233      2.54496      0.06612      2.40665
     3.22000      0.07343      2.55201      0.06694      2.41325
     3.23000      0.07460      2.55914      0.06777      2.41993
     3.24000      0.07582      2.56635      0.06863      2.42669
     3.25000      0.07712      2.57362      0.06949      2.43354
     3.26000      0.07849      2.58097      0.07038      2.44047
     3.27000      0.07995      2.58837      0.07129      2.44749
     3.28000      0.08150      2.59582      0.07221      2.45460
     3.29000      0.08315      2.60331      0.07315      2.46181
     3.30000      0.08490      2.61081      0.07412      2.46910
     3.31000      0.08677      2.61831      0.07510      2.47649
     3.32000      0.08874      2.62577      0.07610      2.48398
     3.33000      0.09080      2.63316      0.07713      2.49157
     3.34000      0.09293      2.64044      0.07818      2.49926
     3.35000      0.09510      2.64758      0.07925      2.50705
     3.36000      0.09722      2.65456      0.08034      2.51495
     3.37000      0.09925      2.66137      0.08146      2.52296
     3.38000      0.10108      2.66802      0.08261      2.53107
     3.39000      0.10264      2.67459      0.08378      2.53930
     3.40000      0.10388      2.68115      0.08498      2.54765
     3.41000      0.10476      2.68782      0.08620      2.55612
     3.42000      0.10533      2.69470      0.08745      2.56470
     3.43000      0.10562      2.70189      0.08874      2.57341
     3.44000      0.10573      2.70943      0.09005      2.58225
     3.45000      0.10574      2.71736      0.09139      2.59121
     3.46000      0.10573      2.72566      0.09277      2.60031
     3.47000      0.10575      2.73431      0.09418      2.60954
     3.48000      0.10585      2.74328      0.09562      2.61891
     3.49000      0.10605      2.75253      0.09710      2.62843
     3.50000      0.10637      2.76203      0.09862      2.63809
    3.510000     0.106806     2.771756     0.100170     2.647898
    3.520000     0.107363     2.781677     0.101763     2.657860
    3.530000     0.108034     2.791780     0.103396     2.667979
    3.540000     0.108813     2.802051     0.105072     2.678258
    3.550000     0.109693     2.812484     0.106791     2.688702
    3.560000     0.110667     2.823071     0.108555     2.699315
    3.570000     0.111730     2.833808     0.110365     2.710100
    3.580000     0.112875     2.844697     0.112224     2.721064
    3.590000     0.114097     2.855735     0.114133     2.732210
    3.600000     0.115393     2.866925     0.116094     2.743543
    3.610000     0.116759     2.878267     0.118108     2.755067
    3.620001     0.118193     2.889766     0.120178     2.766791
    3.630000     0.119691     2.901422     0.122306     2.778715
    3.640001     0.121252     2.913242     0.124495     2.790849
    3.650000     0.122875     2.925226     0.126745     2.803194
    3.660001     0.124559     2.937383     0.129060     2.815762
    3.670000     0.126304     2.949714     0.131443     2.828554
    3.680001     0.128108     2.962225     0.133896     2.841580
    3.690000     0.129973     2.974919     0.136421     2.854844
    3.700001     0.131898     2.987804     0.139022     2.868355
    3.710000     0.133885     3.000880     0.141702     2.882118
    3.720001     0.135933     3.014159     0.144464     2.896143
    3.730000     0.138043     3.027640     0.147311     2.910435
    3.740000     0.140218     3.041334     0.150248     2.925005
    3.750000     0.142458     3.055242     0.153277     2.939859
    3.760000     0.144764     3.069375     0.156403     2.955009
    3.770000     0.147139     3.083734     0.159630     2.970459
    3.780000     0.149583     3.098331     0.162963     2.986223
    3.790000     0.152099     3.113166     0.166405     3.002308
    3.800000     0.154690     3.128252     0.169963     3.018728
    3.810000     0.157357     3.143590     0.173641     3.035488
    3.820000     0.160102     3.159193     0.177445     3.052606
    3.830000     0.162929     3.175064     0.181380     3.070088
    3.840000     0.165839     3.191215     0.185454     3.087951
    3.850000     0.168837     3.207648     0.189671     3.106202
    3.860000     0.171924     3.224377     0.194041     3.124861
    3.869999     0.175104     3.241407     0.198568     3.143936
    3.880000     0.178381     3.258749     0.203262     3.163447
    3.889999     0.181758     3.276409     0.208131     3.183404
    3.900000     0.185240     3.294401     0.213184     3.203828
    3.910001     0.188829     3.312733     0.218430     3.224734
    3.920000     0.192530     3.331411     0.223878     3.246136
    3.930001     0.196348     3.350452     0.229541     3.268059
    3.940000     0.200287     3.369863     0.235428     3.290514
    3.950001     0.204353     3.389658     0.241553     3.313531
    3.960000     0.208550     3.409845     0.247927     3.337123
    3.970001     0.212885     3.430443     0.254566     3.361319
    3.980000     0.217363     3.451458     0.261482     3.386136
    3.990001     0.221990     3.472908     0.268695     3.411606
    4.000000     0.226773     3.494804     0.276217     3.437748
    4.010001     0.231719     3.517165     0.284071     3.464597
    4.020000     0.236834     3.539998     0.292272     3.492173
    4.030001     0.242129     3.563329     0.300845     3.520516
    4.040000     0.247608     3.587167     0.309810     3.549649
    4.050001     0.253283     3.611534     0.319193     3.579615
    4.060000     0.259162     3.636442     0.329018     3.610441
    4.070001     0.265255     3.661920     0.339317     3.642174
    4.080000     0.271571     3.687975     0.350117     3.674845
    4.090001     0.278123     3.714641     0.361454     3.708506
    4.100000     0.284922     3.741927     0.373360     3.743190
    4.110001     0.291981     3.769866     0.385880     3.778957
    4.120000     0.299311     3.798472     0.399049     3.815847
    4.130001     0.306929     3.827782     0.412920     3.853924
    4.140000     0.314848     3.857808     0.427538     3.893231
    4.150001     0.323086     3.888591     0.442960     3.933842
    4.160000     0.331657     3.920147     0.459244     3.975809
    4.170001     0.340583     3.952518     0.476458     4.019210
    4.180000     0.349880     3.985725     0.494668     4.064107
    4.190001     0.359573     4.019811     0.513959     4.110588
    4.200000     0.369680     4.054802     0.534410     4.158720
    4.210001     0.380228     4.090743     0.556122     4.208606
    4.219999     0.391240     4.127664     0.579193     4.260320
    4.230000     0.402748     4.165617     0.603744     4.313978
    4.239999     0.414777     4.204633     0.629895     4.369668
    4.250000     0.427362     4.244770     0.657795     4.427516
    4.259999     0.440535     4.286063     0.687591     4.487622
    4.270000     0.454336     4.328575     0.719467     4.550131
    4.280001     0.468804     4.372355     0.753612     4.615166
    4.290000     0.483979     4.417450     0.790235     4.682855
    4.300001     0.499914     4.463937     0.829592     4.753370
    4.310000     0.516653     4.511863     0.871939     4.826844
    4.320001     0.534256     4.561310     0.917596     4.903469
    4.330000     0.552778     4.612335     0.966891     4.983388
    4.340001     0.572290     4.665029     1.020227     5.066811
    4.350000     0.592856     4.719455     1.078025     5.153896
    4.360001     0.614558     4.775715     1.140800     5.244864
    4.370000     0.637475     4.833882     1.209095     5.339878
    4.380001     0.661705     4.894070     1.283576     5.439162
    4.390000     0.687341     4.956362     1.364952     5.542871
    4.400001     0.714501     5.020886     1.454086     5.651216
    4.410000     0.743296     5.087737     1.551910     5.764310
    4.420001     0.773870     5.157058     1.659558     5.882311
    4.430000     0.806359     5.228957     1.778260     6.005249
    4.440001     0.840933     5.303599     1.909511     6.133153
    4.450000     0.877761     5.381104     2.054944     6.265869
    4.460001     0.917051     5.461654     2.216531     6.403173
    4.470000     0.959010     5.545393     2.396434     6.544553
    4.480000     1.003896     5.632523     2.597243     6.689301
    4.490000     1.051963     5.723205     2.821778     6.836227
    4.500000     1.103530     5.817670     3.073373     6.983726
    4.510000     1.158919     5.916099     3.355588     7.129404
    4.520000     1.218525     6.018745     3.672503     7.270044
    4.530000     1.282755     6.125815     4.028267     7.401145
    4.540000     1.352106     6.237592     4.427322     7.516766
    4.550000     1.427097     6.354300     4.873608     7.608972
    4.560000     1.508359     6.476244     5.370541     7.667594
    4.570000     1.596556     6.603670     5.919604     7.679801
    4.580000     1.692500     6.736901     6.519814     7.630064
    4.590000     1.797050     6.876184     7.165490     7.500534
    4.600000     1.911255     7.021845     7.845304     7.272089
    4.610000     2.036239     7.174115     8.539927     6.926749
    4.620000     2.173371     7.333290     9.222280     6.450773
    4.630001     2.324155     7.499557     9.857955     5.839187
     4.64000      2.49031      7.67305     10.40931      5.09947
     4.65000      2.67391      7.85389     10.84170      4.25268
     4.66000      2.87722      8.04196     11.12948      3.33216
     4.67000      3.10297      8.23709     11.26101      2.37674
     4.68000      3.35416      8.43873     11.23856      1.42466
     4.69000      3.63443      8.64613     11.07470      0.50685
     4.70000      3.94774      8.85794     10.78684     -0.35353
     4.71000      4.29882      9.07230     10.39299     -1.14054
    4.720000     4.692836     9.286400     9.910884    -1.841522
    4.730001     5.135787     9.496385     9.358563    -2.446571
    4.740000     5.634007     9.696784     8.756160    -2.948097
    4.750001     6.194602     9.880266     8.125088    -3.343223
     4.76000      6.82450     10.03683      7.48715     -3.63433
     4.77000      7.53071     10.15334      6.86147     -3.82940
     4.78000      8.31854     10.21263      6.26353     -3.94026
     4.79000      9.19126     10.19299      5.70359     -3.98084
     4.80000     10.14701     10.06769      5.18777     -3.96525
     4.81000     11.17722      9.80530      4.71808     -3.90651
     4.82000     12.26207      9.37141      4.29417     -3.81590
     4.83000     13.36842      8.73179      3.91364     -3.70271
     4.84000     14.44607      7.85899      3.57337     -3.57434
     4.85000     15.42962      6.73978      3.26958     -3.43646
     4.86000     16.24245      5.38546      2.99860     -3.29343
     4.87000     16.80897      3.83712      2.75672     -3.14838
     4.88000     17.06897      2.16752      2.54067     -3.00369
     4.89000     16.99294      0.47013      2.34733     -2.86094
     4.90000     16.58981     -1.15531      2.17405     -2.72132
     4.91000     15.90432     -2.62349      2.01837     -2.58555
     4.92000     15.00579     -3.87509      1.87825     -2.45413
     4.93000     13.97164     -4.88333      1.75179     -2.32730
     4.94000     12.87465     -5.64873      1.63744     -2.20522
     4.95000     11.77334     -6.19218      1.53376     -2.08786
     4.96000     10.71035     -6.54491      1.43958     -1.97522
    4.970000     9.712179    -6.741819     1.353796    -1.867123
    4.980000     8.793439    -6.816200     1.275523    -1.763475
    4.990000     7.959088    -6.797460     1.203925    -1.664068
    5.000001     7.208541    -6.710049     1.138313    -1.568737
    5.010000     6.537567    -6.573600     1.078076    -1.477310
    5.020001     5.939719    -6.403338     1.022651    -1.389567
    5.030000     5.408177    -6.210971     0.971579    -1.305349
    5.040001     4.935696    -6.005163     0.924421    -1.224447
    5.050000     4.515671    -5.792428     0.880821    -1.146710
    5.060001     4.141749    -5.577380     0.840432    -1.071943
    5.070000     3.808445    -5.363454     0.802976    -1.000006
    5.080001     3.510678    -5.152930     0.768178    -0.930724
    5.090000     3.244171    -4.947490     0.735818    -0.863970
    5.100001     3.005013    -4.748127     0.705678    -0.799586
    5.110000     2.789956    -4.555563     0.677580    -0.737459
    5.120001     2.596040    -4.370092     0.651350    -0.677447
    5.130000     2.420818    -4.191924     0.626846    -0.619451
    5.140001     2.262058    -4.020997     0.603924    -0.563342
    5.150000     2.117917    -3.857254     0.582471    -0.509035
    5.160001     1.986706    -3.700458     0.562370    -0.456412
    5.170000     1.867035    -3.550429     0.543529    -0.405400
    5.180001     1.757615    -3.406854     0.525851    -0.355894
    5.190000     1.657388    -3.269498     0.509260    -0.307827
    5.200001     1.565368    -3.138033     0.493678    -0.261106
    5.210000     1.480742    -3.012208     0.479042    -0.215672
    5.220001     1.402745    -2.891703     0.465287    -0.171441
    5.230000     1.330750    -2.776277     0.452361    -0.128361
     5.24000      1.26416     -2.66563      0.44021     -0.08635
     5.25000      1.20248     -2.55953      0.42879     -0.04538
      5.2600       1.1452      -2.4577       0.4181      -0.0054
     5.27000      1.09207     -2.35997      0.40798      0.03375
     5.28000      1.04258     -2.26606      0.39851      0.07199
    5.289999     0.996470    -2.175793     0.389636     0.109426
    5.300000     0.953436    -2.088953     0.381311     0.146101
    5.309999     0.913236    -2.005377     0.373517     0.182051
    5.320000     0.875627    -1.924868     0.366228     0.217331
    5.329999     0.840414    -1.847286     0.359424     0.251972
    5.340000     0.807398    -1.772453     0.353086     0.286024
    5.349999     0.776420    -1.700246     0.347198     0.319516
    5.360000     0.747319    -1.630506     0.341742     0.352495
    5.370001     0.719961    -1.563113     0.336707     0.384992
    5.380000     0.694227    -1.497956     0.332083     0.417037
    5.390001     0.669995    -1.434901     0.327857     0.448676
    5.400000     0.647173    -1.373857     0.324023     0.479932
    5.410001     0.625660    -1.314707     0.320573     0.510847
    5.420000     0.605381    -1.257370     0.317504     0.541445
    5.430001     0.586254    -1.201739     0.314812     0.571767
    5.440000     0.568218    -1.147745     0.312495     0.601835
    5.450001     0.551204    -1.095293     0.310553     0.631691
    5.460000     0.535163    -1.044323     0.308988     0.661356
    5.470001     0.520039    -0.994748     0.307804     0.690871
    5.480000     0.505792    -0.946517     0.307006     0.720258
    5.490001     0.492375    -0.899548     0.306601     0.749558
    5.500000     0.479758    -0.853795     0.306598     0.778794
    5.510001     0.467903    -0.809186     0.307009     0.808007
    5.520000     0.456786    -0.765678     0.307848     0.837221
    5.530001     0.446381    -0.723201     0.309132     0.866479
    5.540000     0.436674    -0.681717     0.310878     0.895805
    5.550001     0.427650    -0.641158     0.313111     0.925244
    5.560000     0.419309    -0.601491     0.315855     0.954822
    5.570001     0.411650    -0.562658     0.319140     0.984586
    5.580000     0.404686    -0.524632     0.323000     1.014564
    5.590001     0.398432    -0.487368     0.327473     1.044805
    5.600000     0.392914    -0.450848     0.332604     1.075340
    5.610001     0.388159    -0.415040     0.338442     1.106221
    5.620000     0.384209    -0.379945     0.345044     1.137481
    5.630001     0.381109    -0.345549     0.352476     1.169175
    5.639999     0.378916    -0.311875     0.360808     1.201339
    5.650001     0.377696    -0.278938     0.370129     1.234030
    5.659999     0.377524    -0.246800     0.380530     1.267284
    5.670001     0.378479    -0.215529     0.392124     1.301162
    5.679999     0.380648    -0.185247     0.405031     1.335702
    5.690001     0.384111    -0.156106     0.419400     1.370960
    5.699999     0.388931    -0.128330     0.435388     1.406973
    5.710001     0.395141    -0.102186     0.453189     1.443792
     5.72000      0.40270     -0.07803      0.47301      1.48144
     5.73000      0.41149     -0.05628      0.49512      1.51996
     5.74000      0.42122     -0.03738      0.51978      1.55935
     5.75000      0.43142     -0.02179      0.54734      1.59961
      5.7600       0.4414      -0.0099       0.5782       1.6407
    5.770       0.4503       -.1758E-2    0.6127        1.683   
    5.780       0.4569       0.2687E-2    0.6515        1.725   
    5.790       0.4603       0.4066E-2    0.6950        1.768   
    5.800       0.4597       0.3391E-2    0.7440        1.811   
    5.810       0.4546       0.1972E-2    0.7993        1.854   
    5.820       0.4451       0.1182E-2    0.8615        1.896   
    5.830       0.4319       0.2210E-2    0.9317        1.937   
      5.8400       0.4159       0.0059       1.0108       1.9743
     5.85000      0.39823      0.01254      1.09978      2.00778
     5.86000      0.37981      0.02222      1.19954      2.03513
     5.87000      0.36147      0.03462      1.31073      2.05381
     5.88000      0.34376      0.04933      1.43366      2.06066
     5.89000      0.32707      0.06587      1.56780      2.05182
     5.90000      0.31158      0.08380      1.71162      2.02285
    5.910000     0.297344     0.102723     1.861857     1.969003
    5.920001     0.284358     0.122318     2.013342     1.885763
    5.930000     0.272557     0.142321     2.158519     1.769860
    5.940001     0.261850     0.162540     2.287894     1.620357
    5.950000     0.252140     0.182815     2.390812     1.440009
    5.960001     0.243326     0.203046     2.457354     1.235778
    5.970000     0.235315     0.223143     2.480360     1.018726
    5.980000     0.228016     0.243058     2.457341     0.802161
    5.990000     0.221355     0.262747     2.391138     0.599449
    6.000000     0.215258     0.282190     2.289119     0.421316
    6.010000     0.209666     0.301370     2.161389     0.274575
    6.020000     0.204523     0.320282     2.018522     0.161643
     6.03000      0.19978      0.33892      1.87002      0.08148
     6.04000      0.19541      0.35729      1.72322      0.03066
    6.050       0.1914       0.3754        1.583       0.4675E-2
    6.060       0.1876       0.3932        1.453       -.1224E-2
      6.0700       0.1841       0.4108       1.3349       0.0086
     6.08000      0.18087      0.42820      1.22835      0.03023
     6.09000      0.17786      0.44532      1.13354      0.06067
     6.10000      0.17505      0.46223      1.04975      0.09742
    6.110001     0.172432     0.478923     0.976131     0.138581
    6.120000     0.169995     0.495413     0.911770     0.182708
    6.130001     0.167724     0.511715     0.855733     0.228755
    6.140000     0.165610     0.527833     0.807193     0.275937
    6.150001     0.163643     0.543783     0.765372     0.323717
    6.160000     0.161817     0.559569     0.729616     0.371696
    6.170001     0.160124     0.575206     0.699343     0.419633
    6.180000     0.158559     0.590697     0.674082     0.467347
    6.190001     0.157116     0.606058     0.653431     0.514753
    6.200000     0.155793     0.621292     0.637085     0.561787
    6.210001     0.154585     0.636415     0.624802     0.608446
    6.220000     0.153489     0.651428     0.616418     0.654720
    6.230001     0.152505     0.666347     0.611834     0.700639
    6.240000     0.151629     0.681176     0.611017     0.746203
    6.250000     0.150861     0.695928     0.613999     0.791437
    6.260000     0.150201     0.710607     0.620878     0.836319
    6.270000     0.149649     0.725226     0.631820     0.880828
    6.280000     0.149206     0.739790     0.647054     0.924876
    6.290000     0.148871     0.754313     0.666891     0.968345
    6.300000     0.148649     0.768798     0.691701     1.011012
    6.310000     0.148539     0.783261     0.721945     1.052578
    6.320000     0.148546     0.797704     0.758131     1.092577
    6.330000     0.148672     0.812143     0.800848     1.130390
    6.340000     0.148922     0.826583     0.850686     1.165136
    6.350000     0.149301     0.841038     0.908250     1.195658
    6.360000     0.149813     0.855513     0.974019     1.220414
    6.370000     0.150465     0.870025     1.048291     1.237450
    6.380000     0.151265     0.884580     1.130924     1.244324
    6.390000     0.152219     0.899192     1.221177     1.238153
    6.400000     0.153338     0.913871     1.317302     1.215724
    6.410000     0.154632     0.928631     1.416328     1.173799
    6.420000     0.156111     0.943482     1.513697     1.109669
    6.430000     0.157790     0.958442     1.603380     1.021869
    6.440000     0.159682     0.973519     1.678190     0.911127
    6.450000     0.161805     0.988734     1.730868     0.780946
    6.460001     0.164176     1.004098     1.755402     0.637837
    6.470000     0.166816     1.019626     1.748525     0.490546
    6.480001     0.169749     1.035338     1.710562     0.348478
    6.490000     0.173001     1.051248     1.645357     0.220081
    6.500001     0.176603     1.067377     1.559208     0.111286
     6.51000      0.18059      1.08374      1.45946      0.02510
     6.52000      0.18499      1.10036      1.35308     -0.03826
     6.53000      0.18987      1.11725      1.24583     -0.08053
    6.540001     0.195251     1.134447     1.141897    -0.104612
    6.550000     0.201208     1.151952     1.044007    -0.113766
    6.560001     0.207801     1.169795     0.953607    -0.111183
     6.57000      0.21510      1.18799      0.87131     -0.09969
     6.58000      0.22320      1.20656      0.79706     -0.08165
     6.59000      0.23218      1.22552      0.73049     -0.05897
     6.60000      0.24218      1.24488      0.67102     -0.03313
    6.610       0.2533        1.265       0.6180       -.5274E-2
     6.62000      0.26570      1.28480      0.57071      0.02377
     6.63000      0.27955      1.30535      0.52854      0.05335
     6.64000      0.29505      1.32627      0.49088      0.08303
    6.650000     0.312425     1.347484     0.457190     0.112478
    6.660001     0.331935     1.368933     0.426980     0.141470
    6.670000     0.353873     1.390482     0.399837     0.169844
    6.680001     0.378583     1.411964     0.375381     0.197509
    6.690000     0.406432     1.433121     0.353296     0.224395
    6.700000     0.437845     1.453613     0.333295     0.250478
    6.710000     0.473255     1.472960     0.315140     0.275738
    6.720000     0.513128     1.490531     0.298613     0.300188
    6.730000     0.557886     1.505475     0.283534     0.323831
    6.740000     0.607895     1.516697     0.269740     0.346698
    6.750000     0.663329     1.522801     0.257093     0.368805
    6.760000     0.724097     1.522074     0.245469     0.390188
    6.770000     0.789605     1.512506     0.234764     0.410871
    6.780000     0.858615     1.491887     0.224880     0.430889
    6.789999     0.928948     1.458046     0.215739     0.450267
    6.800000     0.997420     1.409212     0.207265     0.469042
    6.809999     1.059788     1.344592     0.199397     0.487237
    6.820000     1.111181     1.264892     0.192076     0.504884
    6.830001     1.146740     1.172812     0.185252     0.522009
    6.840000     1.162641     1.073025     0.178882     0.538635
    6.850001     1.157030     0.971537     0.172924     0.554792
    6.860000     1.130521     0.874730     0.167345     0.570497
    6.870001     1.086016     0.788049     0.162110     0.585778
    6.880000     1.027978     0.715259     0.157193     0.600650
    6.890001     0.961369     0.658038     0.152566     0.615139
    6.900000     0.890842     0.616317     0.148209     0.629258
    6.910001     0.820122     0.588737     0.144098     0.643028
    6.920000     0.751919     0.573286     0.140216     0.656463
    6.930001     0.687906     0.567727     0.136546     0.669582
    6.940000     0.629000     0.569931     0.133071     0.682396
    6.950001     0.575508     0.578026     0.129779     0.694922
    6.960000     0.527389     0.590450     0.126656     0.707170
    6.970001     0.484345     0.605961     0.123690     0.719156
    6.980000     0.445989     0.623585     0.120871     0.730887
    6.990001     0.411860     0.642587     0.118188     0.742379
    7.000000     0.381515     0.662410     0.115635     0.753637
    7.010001     0.354512     0.682650     0.113200     0.764676
    7.020000     0.330464     0.703004     0.110878     0.775502
    7.030001     0.309004     0.723268     0.108661     0.786126
    7.040000     0.289823     0.743285     0.106544     0.796553
    7.050001     0.272636     0.762962     0.104519     0.806795
    7.060000     0.257204     0.782225     0.102582     0.816855
    7.070001     0.243310     0.801041     0.100727     0.826745
     7.08000      0.23077      0.81938      0.09895      0.83647
     7.09000      0.21943      0.83724      0.09725      0.84603
     7.10000      0.20915      0.85462      0.09561      0.85544
     7.11000      0.19980      0.87153      0.09404      0.86471
     7.12000      0.19129      0.88797      0.09254      0.87383
     7.13000      0.18351      0.90397      0.09109      0.88281
     7.14000      0.17640      0.91955      0.08970      0.89166
     7.15000      0.16988      0.93471      0.08836      0.90039
     7.16000      0.16389      0.94949      0.08707      0.90899
     7.17000      0.15837      0.96390      0.08583      0.91748
     7.18000      0.15329      0.97795      0.08464      0.92585
     7.19000      0.14859      0.99167      0.08349      0.93411
     7.20000      0.14424      1.00508      0.08238      0.94227
     7.21000      0.14021      1.01818      0.08131      0.95032
     7.22000      0.13647      1.03101      0.08028      0.95827
     7.23000      0.13299      1.04356      0.07928      0.96613
     7.24000      0.12975      1.05587      0.07832      0.97390
     7.25000      0.12674      1.06793      0.07739      0.98157
     7.26000      0.12392      1.07977      0.07649      0.98916
     7.27000      0.12129      1.09139      0.07563      0.99667
     7.28000      0.11883      1.10281      0.07479      1.00409
     7.29000      0.11653      1.11404      0.07398      1.01144
     7.30000      0.11437      1.12510      0.07319      1.01871
     7.31000      0.11235      1.13597      0.07244      1.02590
     7.32000      0.11045      1.14669      0.07170      1.03303
     7.33000      0.10866      1.15725      0.07099      1.04008
     7.34000      0.10699      1.16767      0.07031      1.04707
     7.35000      0.10541      1.17796      0.06964      1.05400
     7.36000      0.10392      1.18811      0.06900      1.06086
     7.37000      0.10253      1.19814      0.06837      1.06766
     7.38000      0.10121      1.20805      0.06777      1.07440
     7.39000      0.09997      1.21785      0.06719      1.08109
     7.40000      0.09880      1.22755      0.06662      1.08772
     7.41000      0.09770      1.23715      0.06607      1.09429
     7.42000      0.09666      1.24666      0.06554      1.10082
     7.43000      0.09568      1.25607      0.06502      1.10729
     7.44000      0.09476      1.26541      0.06452      1.11371
     7.45000      0.09389      1.27466      0.06404      1.12009
     7.46000      0.09306      1.28384      0.06357      1.12642
     7.47000      0.09229      1.29295      0.06311      1.13271
     7.48000      0.09156      1.30199      0.06267      1.13895
     7.49000      0.09088      1.31097      0.06225      1.14515
     7.50000      0.09023      1.31989      0.06183      1.15131
     7.51000      0.08963      1.32875      0.06143      1.15743
     7.52000      0.08906      1.33756      0.06104      1.16352
     7.53000      0.08852      1.34632      0.06067      1.16956
     7.54000      0.08802      1.35504      0.06030      1.17557
     7.55000      0.08756      1.36371      0.05995      1.18154
     7.56000      0.08712      1.37234      0.05961      1.18749
     7.57000      0.08671      1.38093      0.05927      1.19339
     7.58000      0.08633      1.38949      0.05895      1.19927
     7.59000      0.08598      1.39802      0.05864      1.20512
     7.60000      0.08565      1.40651      0.05834      1.21093
     7.61000      0.08535      1.41497      0.05805      1.21672
     7.62000      0.08508      1.42341      0.05777      1.22248
     7.63000      0.08483      1.43183      0.05750      1.22821
     7.64000      0.08460      1.44022      0.05723      1.23392
     7.65000      0.08439      1.44860      0.05698      1.23960
     7.66000      0.08421      1.45696      0.05673      1.24526
     7.67000      0.08404      1.46530      0.05649      1.25089
     7.68000      0.08390      1.47363      0.05627      1.25650
     7.69000      0.08377      1.48195      0.05604      1.26209
     7.70000      0.08367      1.49025      0.05583      1.26766
     7.71000      0.08358      1.49855      0.05563      1.27320
     7.72000      0.08352      1.50685      0.05543      1.27873
     7.73000      0.08347      1.51513      0.05524      1.28424
     7.74000      0.08344      1.52342      0.05505      1.28973
     7.75000      0.08342      1.53171      0.05488      1.29520
     7.76000      0.08343      1.53999      0.05471      1.30066
     7.77000      0.08344      1.54828      0.05455      1.30610
     7.78000      0.08348      1.55657      0.05439      1.31152
     7.79000      0.08353      1.56487      0.05424      1.31693
     7.80000      0.08360      1.57317      0.05410      1.32233
     7.81000      0.08369      1.58148      0.05396      1.32771
     7.82000      0.08379      1.58980      0.05383      1.33308
     7.83000      0.08390      1.59813      0.05371      1.33843
     7.84000      0.08403      1.60648      0.05359      1.34378
     7.85000      0.08418      1.61484      0.05348      1.34911
     7.86000      0.08434      1.62321      0.05338      1.35444
     7.87000      0.08452      1.63161      0.05328      1.35975
     7.88000      0.08471      1.64002      0.05318      1.36505
     7.89000      0.08492      1.64845      0.05310      1.37035
     7.90000      0.08514      1.65690      0.05301      1.37563
     7.91000      0.08537      1.66538      0.05294      1.38091
     7.92000      0.08562      1.67388      0.05287      1.38618
     7.93000      0.08589      1.68240      0.05280      1.39145
     7.94000      0.08617      1.69096      0.05274      1.39671
     7.95000      0.08646      1.69954      0.05268      1.40196
     7.96000      0.08678      1.70815      0.05263      1.40721
     7.97000      0.08710      1.71679      0.05259      1.41245
     7.98000      0.08744      1.72547      0.05255      1.41770
     7.99000      0.08780      1.73418      0.05252      1.42293
     8.00000      0.08817      1.74293      0.05249      1.42816
     8.01000      0.08855      1.75171      0.05246      1.43339
     8.02000      0.08895      1.76053      0.05244      1.43862
     8.03000      0.08937      1.76940      0.05243      1.44385
     8.04000      0.08980      1.77830      0.05242      1.44908
     8.05000      0.09025      1.78725      0.05241      1.45430
     8.06000      0.09072      1.79624      0.05241      1.45953
     8.07000      0.09120      1.80528      0.05242      1.46475
     8.08000      0.09169      1.81437      0.05243      1.46998
     8.09000      0.09221      1.82351      0.05244      1.47521
     8.10000      0.09274      1.83270      0.05246      1.48044
     8.11000      0.09328      1.84194      0.05249      1.48567
     8.12000      0.09385      1.85124      0.05251      1.49090
     8.13000      0.09443      1.86060      0.05255      1.49614
     8.14000      0.09503      1.87001      0.05259      1.50138
     8.15000      0.09565      1.87948      0.05263      1.50662
     8.16000      0.09628      1.88901      0.05268      1.51187
     8.17000      0.09694      1.89861      0.05273      1.51713
     8.18000      0.09761      1.90827      0.05279      1.52239
     8.19000      0.09831      1.91800      0.05285      1.52765
     8.20000      0.09902      1.92780      0.05291      1.53293
     8.21000      0.09975      1.93767      0.05298      1.53821
     8.22000      0.10051      1.94761      0.05306      1.54349
     8.23000      0.10128      1.95763      0.05314      1.54879
     8.24000      0.10208      1.96773      0.05322      1.55409
     8.25000      0.10290      1.97790      0.05331      1.55940
     8.26000      0.10374      1.98816      0.05341      1.56472
     8.27000      0.10460      1.99849      0.05351      1.57005
     8.28000      0.10549      2.00892      0.05361      1.57539
     8.29000      0.10640      2.01943      0.05372      1.58074
     8.30000      0.10734      2.03004      0.05383      1.58610
     8.31000      0.10830      2.04073      0.05395      1.59148
     8.32000      0.10929      2.05152      0.05407      1.59686
     8.33000      0.11030      2.06241      0.05420      1.60226
     8.34000      0.11134      2.07340      0.05433      1.60767
     8.35000      0.11241      2.08450      0.05447      1.61309
     8.36000      0.11351      2.09569      0.05461      1.61853
     8.37000      0.11464      2.10700      0.05476      1.62398
     8.38000      0.11579      2.11842      0.05491      1.62945
     8.39000      0.11698      2.12995      0.05507      1.63493
     8.40000      0.11820      2.14160      0.05523      1.64043
     8.41000      0.11946      2.15337      0.05539      1.64595
     8.42000      0.12074      2.16527      0.05557      1.65148
     8.43000      0.12207      2.17729      0.05574      1.65702
     8.44000      0.12342      2.18944      0.05593      1.66259
     8.45000      0.12482      2.20173      0.05611      1.66817
     8.46000      0.12625      2.21415      0.05631      1.67378
     8.47000      0.12772      2.22671      0.05650      1.67940
     8.48000      0.12924      2.23942      0.05671      1.68504
     8.49000      0.13079      2.25228      0.05692      1.69071
     8.50000      0.13239      2.26529      0.05713      1.69639
     8.51000      0.13403      2.27846      0.05735      1.70210
     8.52000      0.13572      2.29179      0.05757      1.70782
     8.53000      0.13745      2.30528      0.05781      1.71357
     8.54000      0.13924      2.31895      0.05804      1.71934
     8.55000      0.14108      2.33279      0.05828      1.72514
     8.56000      0.14296      2.34681      0.05853      1.73096
     8.57000      0.14491      2.36102      0.05879      1.73681
     8.58000      0.14691      2.37541      0.05905      1.74268
     8.59000      0.14896      2.39001      0.05931      1.74858
     8.60000      0.15108      2.40480      0.05959      1.75450
     8.61000      0.15326      2.41980      0.05986      1.76045
     8.62000      0.15551      2.43501      0.06015      1.76643
     8.63000      0.15782      2.45045      0.06044      1.77244
     8.64000      0.16021      2.46611      0.06074      1.77848
     8.65000      0.16266      2.48200      0.06104      1.78454
     8.66000      0.16520      2.49813      0.06136      1.79064
     8.67000      0.16781      2.51451      0.06167      1.79677
     8.68000      0.17050      2.53114      0.06200      1.80293
     8.69000      0.17328      2.54803      0.06233      1.80912
     8.70000      0.17614      2.56520      0.06267      1.81535
     8.71000      0.17910      2.58264      0.06302      1.82161
     8.72000      0.18216      2.60037      0.06337      1.82790
     8.73000      0.18531      2.61839      0.06373      1.83423
     8.74000      0.18857      2.63672      0.06410      1.84060
     8.75000      0.19194      2.65537      0.06448      1.84700
     8.76000      0.19542      2.67434      0.06486      1.85344
     8.77000      0.19902      2.69364      0.06526      1.85992
     8.78000      0.20275      2.71330      0.06566      1.86644
     8.79000      0.20660      2.73331      0.06607      1.87299
     8.80000      0.21059      2.75369      0.06648      1.87959
     8.81000      0.21472      2.77446      0.06691      1.88623
     8.82000      0.21900      2.79563      0.06735      1.89292
     8.83000      0.22344      2.81720      0.06779      1.89964
     8.84000      0.22804      2.83920      0.06824      1.90641
     8.85000      0.23281      2.86164      0.06871      1.91323
     8.86000      0.23776      2.88454      0.06918      1.92009
     8.87000      0.24290      2.90791      0.06966      1.92700
     8.88000      0.24824      2.93177      0.07015      1.93396
     8.89000      0.25379      2.95613      0.07066      1.94096
     8.90000      0.25955      2.98103      0.07117      1.94802
     8.91000      0.26555      3.00647      0.07169      1.95513
     8.92000      0.27180      3.03248      0.07223      1.96229
     8.93000      0.27830      3.05907      0.07277      1.96950
     8.94000      0.28508      3.08628      0.07333      1.97677
     8.95000      0.29214      3.11413      0.07390      1.98409
     8.96000      0.29950      3.14264      0.07448      1.99147
     8.97000      0.30719      3.17183      0.07507      1.99890
     8.98000      0.31522      3.20175      0.07567      2.00640
     8.99000      0.32360      3.23241      0.07629      2.01395
     9.00000      0.33237      3.26385      0.07692      2.02157
     9.01000      0.34155      3.29610      0.07756      2.02925
     9.02000      0.35115      3.32921      0.07822      2.03699
     9.03000      0.36122      3.36319      0.07889      2.04480
     9.04000      0.37177      3.39809      0.07958      2.05267
     9.05000      0.38284      3.43397      0.08027      2.06062
     9.06000      0.39447      3.47084      0.08099      2.06863
     9.07000      0.40669      3.50878      0.08172      2.07671
     9.08000      0.41953      3.54781      0.08246      2.08487
     9.09000      0.43306      3.58800      0.08323      2.09310
     9.10000      0.44731      3.62939      0.08400      2.10140
     9.11000      0.46233      3.67206      0.08480      2.10979
     9.12000      0.47819      3.71606      0.08561      2.11825
     9.13000      0.49495      3.76145      0.08644      2.12679
     9.14000      0.51266      3.80831      0.08729      2.13541
     9.15000      0.53142      3.85671      0.08816      2.14412
     9.16000      0.55130      3.90672      0.08905      2.15291
     9.17000      0.57239      3.95845      0.08996      2.16180
     9.18000      0.59479      4.01196      0.09088      2.17077
     9.19000      0.61861      4.06736      0.09183      2.17983
     9.20000      0.64396      4.12475      0.09280      2.18899
     9.21000      0.67100      4.18424      0.09380      2.19824
     9.22000      0.69985      4.24593      0.09481      2.20759
     9.23000      0.73069      4.30997      0.09585      2.21705
     9.24000      0.76370      4.37646      0.09692      2.22660
     9.25000      0.79910      4.44555      0.09801      2.23626
     9.26000      0.83708      4.51739      0.09912      2.24603
    9.270000     0.877939     4.592126     0.100263     2.255908
    9.280000     0.921935     4.669915     0.101432     2.265897
    9.290000     0.969408     4.750948     0.102630     2.276004
    9.299999     1.020707     4.835379     0.103857     2.286227
    9.310000     1.076259     4.923417     0.105114     2.296573
    9.320000     1.136512     5.015232     0.106403     2.307041
    9.330000     1.202014     5.111047     0.107724     2.317637
    9.339999     1.273344     5.211033     0.109078     2.328362
    9.350000     1.351208     5.315418     0.110466     2.339222
    9.360000     1.436364     5.424360     0.111890     2.350217
    9.370000     1.529733     5.538073     0.113351     2.361354
    9.379999     1.632310     5.656673     0.114850     2.372633
    9.390000     1.745307     5.780316     0.116388     2.384060
    9.400001     1.870063     5.909044     0.117967     2.395639
    9.410000     2.008114     6.042811     0.119588     2.407371
    9.420001     2.161305     6.181530     0.121253     2.419263
    9.430000     2.331656     6.324862     0.122962     2.431318
    9.440001     2.521605     6.472337     0.124719     2.443542
    9.450000     2.733826     6.623088     0.126525     2.455935
    9.460001     2.971514     6.775941     0.128381     2.468508
    9.470000     3.238142     6.929058     0.130289     2.481259
    9.480000     3.537780     7.079960     0.132252     2.494200
    9.490000     3.874737     7.225083     0.134271     2.507330
    9.500001     4.253867     7.359658     0.136348     2.520660
    9.510000     4.679967     7.477140     0.138487     2.534191
    9.520000     5.157948     7.568928     0.140689     2.547931
    9.530000     5.691728     7.623720     0.142957     2.561884
    9.540001     6.283988     7.627145     0.145294     2.576061
    9.550000     6.934186     7.561389     0.147701     2.590462
    9.560000     7.637546     7.405301     0.150184     2.605100
    9.570000     8.381971     7.135347     0.152744     2.619977
    9.580001     9.146580     6.727543     0.155385     2.635104
    9.590000     9.898887     6.161616     0.158110     2.650485
     9.60000     10.59561      5.42596      0.16092      2.66613
     9.61000     11.18467      4.52473      0.16383      2.68205
     9.62000     11.61293      3.48212      0.16683      2.69825
     9.63000     11.83573      2.34465      0.16993      2.71474
     9.64000     11.82800      1.17493      0.17314      2.73153
     9.65000     11.59068      0.04236      0.17645      2.74862
     9.66000     11.15052     -0.99134      0.17988      2.76604
     9.67000     10.55317     -1.88110      0.18344      2.78378
    9.680000     9.851959    -2.604267     0.187113     2.801872
    9.690000     9.098576    -3.157981     0.190923     2.820311
    9.700001     8.335546    -3.554680     0.194872     2.839116
    9.709999     7.594540    -3.815047     0.198967     2.858296
    9.720000     6.895722    -3.963151     0.203215     2.877870
    9.730000     6.250612    -4.022399     0.207624     2.897845
    9.740000     5.663600    -4.013732     0.212203     2.918244
    9.750001     5.134888    -3.954700     0.216960     2.939076
    9.760000     4.661893    -3.859481     0.221905     2.960356
    9.770001     4.240317    -3.739113     0.227049     2.982109
    9.780000     3.865497    -3.602109     0.232401     3.004343
    9.790001     3.532397    -3.454791     0.237974     3.027085
    9.800000     3.236400    -3.301919     0.243780     3.050347
    9.810000     2.973033    -3.146879     0.249833     3.074156
    9.820000     2.738428    -2.992190     0.256146     3.098530
    9.830001     2.528989    -2.839540     0.262737     3.123496
    9.840000     2.341690    -2.690173     0.269619     3.149072
    9.850000     2.173758    -2.544833     0.276814     3.175290
    9.860000     2.022891    -2.404064     0.284337     3.202169
    9.870001     1.886989    -2.268101     0.292212     3.229747
    9.880000     1.764315    -2.137110     0.300459     3.258044
    9.890000     1.653288    -2.011062     0.309105     3.287103
    9.900000     1.552601    -1.889931     0.318173     3.316946
    9.910001     1.461055    -1.773559     0.327695     3.347619
    9.920000     1.377666    -1.661824     0.337697     3.379147
    9.930000     1.301521    -1.554514     0.348218     3.411584
    9.940000     1.231871    -1.451468     0.359289     3.444959
    9.950001     1.168016    -1.352451     0.370954     3.479328
    9.960000     1.109382    -1.257298     0.383253     3.514727
    9.970000     1.055428    -1.165780     0.396236     3.551219
    9.980000     1.005710    -1.077731     0.409952     3.588845
    9.990001     0.959806    -0.992937     0.424460     3.627675
    10.00000      0.91737     -0.91125      0.43982      3.66775
# 
# 04/08/2018 at 00:58 YAMBO @ narro [start]
# 04/08/2018 at 00:59               [end]
#  
# Timing   [Min/Max/Average]: 15s/15s/15s
#
# .-Input file : yambo.in
# | optics                         # [R OPT] Optics
# | bse                            # [R BSE] Bethe Salpeter Equation.
# | bsk                            # [R BSK] Bethe Salpeter Equation kernel
# | bss                            # [R BSS] Bethe Salpeter Equation solver
# | em1s                           # [R Xs] Static Inverse Dielectric Matrix
# | BoseTemp= 0.000000     eV      # Bosonic Temperature
# | FFTGvecs=  3473        RL      # [FFT] Plane-waves
# | Chimod= "hartree"              # [X] IP/Hartree/ALDA/LRC/BSfxc
# | BSEmod= "resonant"             # [BSE] resonant/retarded/coupling
# | BSKmod= "SEX"                  # [BSE] IP/Hartree/HF/ALDA/SEX/BSfxc
# | BSSmod= "d"                    # [BSS] (h)aydock/(d)iagonalization/(i)nversion/(t)ddft`
# | BSENGexx=  51          RL      # [BSK] Exchange components
# | BSENGBlk=  51          RL      # [BSK] Screened interaction block size
# | #WehCpl                        # [BSK] eh interaction included also in coupling
# | % BEnRange
# | -10.00000 | 10.00000 | eV      # [BSS] Energy range
# | %
# | % BDmRange
# |   0.10000 |  0.10000 | eV      # [BSS] Damping range
# | %
# | BEnSteps= 2001                 # [BSS] Energy steps
# | % BLongDir
# | 0.5774E-5 |0.5774E-5 |0.5774E-5 |        # [BSS] [cc] Electric Field
# | %
# | % BSEQptR
# |   1 |  4 |                     # [BSK] Transferred momenta range
# | %
# | % BSEBands
# |   3 | 10 |                     # [BSK] Bands range
# | %
# | % BndsRnXs
# |    1 |  60 |                   # [Xs] Polarization function bands
# | %
# | NGsBlkXs=  51          RL      # [Xs] Response block size
# | % DmRngeXs
# | 0.1000E-2 |0.1000E-2 | eV      # [Xs] Damping range
# | %
# | % LongDrXs
# | 0.1000E-4 | 0.000    | 0.000    |        # [Xs] [cc] Electric Field
# | %
