#                                                           
#  __  __   ________   ___ __ __    _______   ______        
# /_/\/_/\ /_______/\ /__//_//_/\ /_______/\ /_____/\       
# \ \ \ \ \\::: _  \ \\::\| \| \ \\::: _  \ \\:::_ \ \      
#  \:\_\ \ \\::(_)  \ \\:.      \ \\::(_)  \/_\:\ \ \ \     
#   \::::_\/ \:: __  \ \\:.\-/\  \ \\::  _  \ \\:\ \ \ \    
#     \::\ \  \:.\ \  \ \\. \  \  \ \\::(_)  \ \\:\_\ \ \   
#      \__\/   \__\/\__\/ \__\/ \__\/ \_______\/ \_____\/   
#                                                           
#                                                           
#       Version 4.4.0 Revision 16026 Hash 7ef228b25         
#                  MPI+SLK+OpenMP Build                     
#                http://www.yambo-code.org                  
#
#
# Electron-Hole pairs that contributes to Excitonic State 1 for iq=2 more than  5.000000%
#
#    E    [eV]    Amplitude
#    
      3.5947       0.0069
      3.5988       0.0070
      3.6028       0.0072
      3.6069       0.0073
      3.6110       0.0074
      3.6150       0.0075
      3.6191       0.0076
      3.6231       0.0078
      3.6272       0.0079
      3.6313       0.0080
      3.6353       0.0082
      3.6394       0.0083
      3.6434       0.0084
      3.6475       0.0086
      3.6515       0.0087
      3.6556       0.0089
      3.6597       0.0090
      3.6637       0.0092
      3.6678       0.0094
      3.6718       0.0096
      3.6759       0.0097
      3.6799       0.0099
     3.68400      0.01010
     3.68806      0.01030
     3.69211      0.01050
     3.69617      0.01070
     3.70023      0.01092
     3.70429      0.01113
     3.70834      0.01136
     3.71240      0.01159
     3.71646      0.01183
     3.72052      0.01208
     3.72457      0.01233
     3.72863      0.01260
     3.73269      0.01287
     3.73675      0.01315
     3.74080      0.01344
     3.74486      0.01374
     3.74892      0.01406
     3.75298      0.01438
     3.75703      0.01471
     3.76109      0.01506
     3.76515      0.01542
     3.76921      0.01579
     3.77326      0.01617
     3.77732      0.01657
     3.78138      0.01699
     3.78544      0.01742
     3.78949      0.01786
     3.79355      0.01833
     3.79761      0.01881
     3.80167      0.01932
     3.80572      0.01984
     3.80978      0.02039
     3.81384      0.02096
     3.81789      0.02155
     3.82195      0.02217
     3.82601      0.02282
     3.83007      0.02349
     3.83413      0.02420
     3.83818      0.02494
     3.84224      0.02571
     3.84630      0.02652
     3.85035      0.02737
     3.85441      0.02826
     3.85847      0.02920
     3.86253      0.03018
     3.86658      0.03121
     3.87064      0.03230
     3.87470      0.03345
     3.87876      0.03465
     3.88281      0.03593
     3.88687      0.03727
     3.89093      0.03870
     3.89499      0.04020
     3.89904      0.04180
     3.90310      0.04349
     3.90716      0.04528
     3.91122      0.04719
     3.91527      0.04922
     3.91933      0.05138
     3.92339      0.05369
     3.92745      0.05616
     3.93150      0.05879
     3.93556      0.06162
     3.93962      0.06465
     3.94368      0.06790
     3.94773      0.07140
     3.95179      0.07518
     3.95585      0.07925
     3.95991      0.08366
     3.96396      0.08844
     3.96802      0.09362
     3.97208      0.09926
    3.976136     0.105412
    3.980193     0.112127
    3.984251     0.119477
    3.988308     0.127542
    3.992366     0.136410
    3.996424     0.146186
    4.000481     0.156986
    4.004539     0.168950
    4.008596     0.182232
    4.012653     0.197017
    4.016711     0.213511
    4.020768     0.231955
    4.024826     0.252621
    4.028883     0.275821
    4.032940     0.301896
    4.036998     0.331235
    4.041056     0.364240
    4.045113     0.401327
    4.049170     0.442897
    4.053228     0.489264
    4.057286     0.540605
    4.061343     0.596802
    4.065401     0.657325
    4.069458     0.720995
    4.073515     0.785805
    4.077573     0.848796
    4.081630     0.906085
    4.085688     0.953174
    4.089745     0.985631
    4.093803     1.000000
    4.097860     0.994634
    4.101918     0.970154
    4.105975     0.929282
    4.110033     0.876114
    4.114090     0.815218
    4.118147     0.750826
    4.122205     0.686336
    4.126262     0.624193
    4.130320     0.565917
    4.134377     0.512325
    4.138435     0.463690
    4.142492     0.419963
    4.146550     0.380873
    4.150607     0.346058
    4.154665     0.315098
    4.158722     0.287583
    4.162780     0.263120
    4.166837     0.241341
    4.170895     0.221925
    4.174952     0.204577
    4.179009     0.189047
    4.183067     0.175109
    4.187124     0.162573
    4.191182     0.151267
    4.195240     0.141048
    4.199297     0.131788
    4.203354     0.123377
    4.207412     0.115721
    4.211470     0.108734
    4.215527     0.102346
     4.21958      0.09649
     4.22364      0.09111
     4.22770      0.08617
     4.23176      0.08161
     4.23581      0.07739
     4.23987      0.07350
     4.24393      0.06988
     4.24799      0.06653
     4.25204      0.06341
     4.25610      0.06051
     4.26016      0.05780
     4.26422      0.05527
     4.26827      0.05290
     4.27233      0.05069
     4.27639      0.04861
     4.28045      0.04666
     4.28450      0.04482
     4.28856      0.04310
     4.29262      0.04147
     4.29668      0.03994
     4.30073      0.03849
     4.30479      0.03713
     4.30885      0.03583
     4.31291      0.03461
     4.31696      0.03345
     4.32102      0.03235
     4.32508      0.03130
     4.32914      0.03031
     4.33319      0.02937
     4.33725      0.02847
     4.34131      0.02761
     4.34537      0.02680
     4.34942      0.02602
     4.35348      0.02528
     4.35754      0.02458
     4.36160      0.02390
     4.36565      0.02326
     4.36971      0.02264
     4.37377      0.02205
     4.37783      0.02148
     4.38188      0.02094
     4.38594      0.02042
     4.39000      0.01993
     4.39406      0.01945
     4.39811      0.01899
     4.40217      0.01855
     4.40623      0.01813
     4.41029      0.01772
     4.41434      0.01733
     4.41840      0.01696
     4.42246      0.01660
     4.42652      0.01625
     4.43057      0.01591
     4.43463      0.01559
     4.43869      0.01528
     4.44274      0.01498
     4.44680      0.01469
     4.45086      0.01442
     4.45492      0.01415
     4.45897      0.01389
     4.46303      0.01364
     4.46709      0.01340
     4.47115      0.01317
     4.47520      0.01295
     4.47926      0.01273
     4.48332      0.01252
     4.48738      0.01232
     4.49143      0.01212
     4.49549      0.01194
     4.49955      0.01175
     4.50361      0.01158
     4.50766      0.01141
     4.51172      0.01124
     4.51578      0.01108
     4.51984      0.01093
     4.52389      0.01078
     4.52795      0.01064
     4.53201      0.01050
     4.53607      0.01037
     4.54012      0.01024
     4.54418      0.01011
      4.5482       0.0100
      4.5523       0.0099
      4.5564       0.0098
      4.5604       0.0097
      4.5645       0.0096
      4.5685       0.0095
      4.5726       0.0094
      4.5766       0.0093
      4.5807       0.0092
      4.5848       0.0091
      4.5888       0.0090
      4.5929       0.0089
      4.5969       0.0088
      4.6010       0.0088
      4.6050       0.0087
      4.6091       0.0086
      4.6132       0.0086
      4.6172       0.0085
      4.6213       0.0084
      4.6253       0.0084
      4.6294       0.0083
      4.6334       0.0083
      4.6375       0.0082
      4.6416       0.0082
      4.6456       0.0081
      4.6497       0.0081
      4.6537       0.0080
      4.6578       0.0080
      4.6618       0.0080
      4.6659       0.0079
      4.6700       0.0079
      4.6740       0.0079
      4.6781       0.0078
      4.6821       0.0078
      4.6862       0.0078
      4.6903       0.0078
      4.6943       0.0077
      4.6984       0.0077
      4.7024       0.0077
      4.7065       0.0077
      4.7105       0.0077
      4.7146       0.0077
      4.7187       0.0077
      4.7227       0.0077
      4.7268       0.0077
      4.7308       0.0077
      4.7349       0.0077
      4.7389       0.0077
      4.7430       0.0077
      4.7471       0.0077
      4.7511       0.0077
      4.7552       0.0077
      4.7592       0.0077
      4.7633       0.0078
      4.7673       0.0078
      4.7714       0.0078
      4.7755       0.0078
      4.7795       0.0078
      4.7836       0.0079
      4.7876       0.0079
      4.7917       0.0079
      4.7957       0.0080
      4.7998       0.0080
      4.8039       0.0081
      4.8079       0.0081
      4.8120       0.0082
      4.8160       0.0082
      4.8201       0.0083
      4.8241       0.0083
      4.8282       0.0084
      4.8323       0.0084
      4.8363       0.0085
      4.8404       0.0086
      4.8444       0.0086
      4.8485       0.0087
      4.8525       0.0088
      4.8566       0.0089
      4.8607       0.0090
      4.8647       0.0090
      4.8688       0.0091
      4.8728       0.0092
      4.8769       0.0093
      4.8810       0.0094
      4.8850       0.0096
      4.8891       0.0097
      4.8931       0.0098
      4.8972       0.0099
     4.90124      0.01004
     4.90530      0.01018
     4.90935      0.01032
     4.91341      0.01047
     4.91747      0.01062
     4.92153      0.01078
     4.92558      0.01095
     4.92964      0.01112
     4.93370      0.01130
     4.93776      0.01148
     4.94181      0.01168
     4.94587      0.01188
     4.94993      0.01209
     4.95399      0.01231
     4.95804      0.01254
     4.96210      0.01278
     4.96616      0.01303
     4.97022      0.01329
     4.97427      0.01356
     4.97833      0.01384
     4.98239      0.01414
     4.98645      0.01445
     4.99050      0.01477
     4.99456      0.01510
     4.99862      0.01545
     5.00268      0.01582
     5.00673      0.01620
     5.01079      0.01661
     5.01485      0.01703
     5.01891      0.01747
     5.02296      0.01793
     5.02702      0.01841
     5.03108      0.01892
     5.03514      0.01946
     5.03919      0.02002
     5.04325      0.02061
     5.04731      0.02123
     5.05137      0.02188
     5.05542      0.02257
     5.05948      0.02330
     5.06354      0.02406
     5.06760      0.02487
     5.07165      0.02573
     5.07571      0.02663
     5.07977      0.02759
     5.08383      0.02860
     5.08788      0.02968
     5.09194      0.03082
     5.09600      0.03204
     5.10005      0.03333
     5.10411      0.03471
     5.10817      0.03618
     5.11223      0.03775
     5.11628      0.03944
     5.12034      0.04124
     5.12440      0.04317
     5.12846      0.04524
     5.13251      0.04747
     5.13657      0.04988
     5.14063      0.05247
     5.14469      0.05528
     5.14874      0.05832
     5.15280      0.06161
     5.15686      0.06520
     5.16092      0.06910
     5.16497      0.07336
     5.16903      0.07802
     5.17309      0.08312
     5.17715      0.08873
     5.18120      0.09491
    5.185262     0.101733
    5.189320     0.109279
    5.193377     0.117648
    5.197434     0.126953
    5.201491     0.137325
    5.205549     0.148911
    5.209607     0.161881
    5.213664     0.176430
    5.217722     0.192775
    5.221779     0.211157
    5.225836     0.231841
    5.229894     0.255105
    5.233952     0.281222
    5.238009     0.310432
    5.242066     0.342911
    5.246124     0.378693
    5.250181     0.417579
    5.254239     0.459011
    5.258296     0.501962
    5.262354     0.544785
    5.266411     0.585184
    5.270468     0.620337
    5.274526     0.647210
    5.278584     0.663088
    5.282641     0.666206
    5.286698     0.656199
    5.290756     0.634212
    5.294814     0.602584
    5.298871     0.564272
    5.302928     0.522254
    5.306986     0.479104
    5.311043     0.436776
    5.315101     0.396578
    5.319158     0.359270
    5.323216     0.325205
    5.327273     0.294450
    5.331330     0.266884
    5.335388     0.242287
    5.339446     0.220404
    5.343503     0.200953
    5.347560     0.183660
    5.351618     0.168275
    5.355675     0.154570
    5.359733     0.142336
    5.363791     0.131394
    5.367848     0.121587
    5.371905     0.112774
    5.375963     0.104836
     5.38002      0.09767
     5.38408      0.09118
     5.38813      0.08529
     5.39219      0.07994
     5.39625      0.07506
     5.40031      0.07060
     5.40436      0.06652
     5.40842      0.06277
     5.41248      0.05933
     5.41654      0.05615
     5.42060      0.05322
     5.42465      0.05051
     5.42871      0.04801
     5.43277      0.04568
     5.43682      0.04351
     5.44088      0.04150
     5.44494      0.03962
     5.44900      0.03787
     5.45305      0.03623
     5.45711      0.03469
     5.46117      0.03325
     5.46523      0.03190
     5.46928      0.03063
     5.47334      0.02944
     5.47740      0.02831
     5.48146      0.02725
     5.48551      0.02625
     5.48957      0.02530
     5.49363      0.02440
     5.49769      0.02355
     5.50174      0.02275
     5.50580      0.02198
     5.50986      0.02126
     5.51392      0.02057
     5.51797      0.01991
     5.52203      0.01929
     5.52609      0.01870
     5.53015      0.01813
     5.53420      0.01759
     5.53826      0.01707
     5.54232      0.01658
     5.54638      0.01611
     5.55043      0.01566
     5.55449      0.01523
     5.55855      0.01481
     5.56261      0.01442
     5.56666      0.01404
     5.57072      0.01367
     5.57478      0.01332
     5.57884      0.01298
     5.58289      0.01266
     5.58695      0.01235
     5.59101      0.01205
     5.59507      0.01176
     5.59912      0.01148
     5.60318      0.01122
     5.60724      0.01096
     5.61130      0.01071
     5.61535      0.01047
     5.61941      0.01024
     5.62347      0.01002
      5.6275       0.0098
      5.6316       0.0096
      5.6356       0.0094
      5.6397       0.0092
      5.6438       0.0090
      5.6478       0.0088
      5.6519       0.0086
      5.6559       0.0085
      5.6600       0.0083
      5.6640       0.0081
      5.6681       0.0080
      5.6722       0.0078
      5.6762       0.0077
      5.6803       0.0076
      5.6843       0.0074
      5.6884       0.0073
      5.6924       0.0071
      5.6965       0.0070
      5.7006       0.0069
      5.7046       0.0068
      5.7087       0.0067
      5.7127       0.0065
      5.7168       0.0064
      5.7208       0.0063
      5.7249       0.0062
      5.7290       0.0061
      5.7330       0.0060
      5.7371       0.0059
      5.7411       0.0058
    5.745       0.5744E-2
    5.749       0.5655E-2
    5.753       0.5568E-2
    5.757       0.5483E-2
    5.761       0.5401E-2
    5.765       0.5320E-2
    5.770       0.5241E-2
    5.774       0.5164E-2
    5.778       0.5089E-2
    5.782       0.5016E-2
    5.786       0.4944E-2
    5.790       0.4874E-2
    5.794       0.4806E-2
    5.798       0.4739E-2
    5.802       0.4674E-2
    5.806       0.4611E-2
    5.810       0.4548E-2
    5.814       0.4487E-2
    5.818       0.4428E-2
    5.822       0.4369E-2
    5.826       0.4312E-2
    5.830       0.4257E-2
    5.834       0.4202E-2
    5.839       0.4149E-2
    5.843       0.4096E-2
    5.847       0.4045E-2
    5.851       0.3995E-2
    5.855       0.3946E-2
    5.859       0.3898E-2
    5.863       0.3851E-2
    5.867       0.3805E-2
    5.871       0.3759E-2
    5.875       0.3715E-2
    5.879       0.3672E-2
    5.883       0.3629E-2
    5.887       0.3587E-2
    5.891       0.3546E-2
    5.895       0.3506E-2
    5.899       0.3467E-2
    5.903       0.3428E-2
    5.907       0.3390E-2
    5.912       0.3353E-2
    5.916       0.3317E-2
    5.920       0.3281E-2
    5.924       0.3246E-2
    5.928       0.3212E-2
    5.932       0.3178E-2
    5.936       0.3145E-2
    5.940       0.3112E-2
    5.944       0.3080E-2
    5.948       0.3048E-2
    5.952       0.3018E-2
    5.956       0.2987E-2
    5.960       0.2958E-2
    5.964       0.2928E-2
    5.968       0.2900E-2
    5.972       0.2871E-2
    5.976       0.2844E-2
    5.981       0.2816E-2
    5.985       0.2789E-2
    5.989       0.2763E-2
    5.993       0.2737E-2
    5.997       0.2712E-2
    6.001       0.2687E-2
    6.005       0.2662E-2
    6.009       0.2638E-2
    6.013       0.2614E-2
    6.017       0.2591E-2
    6.021       0.2568E-2
    6.025       0.2545E-2
    6.029       0.2523E-2
    6.033       0.2501E-2
    6.037       0.2480E-2
    6.041       0.2458E-2
    6.045       0.2438E-2
    6.050       0.2417E-2
    6.054       0.2397E-2
    6.058       0.2377E-2
    6.062       0.2358E-2
    6.066       0.2338E-2
    6.070       0.2319E-2
    6.074       0.2301E-2
    6.078       0.2283E-2
    6.082       0.2265E-2
    6.086       0.2247E-2
    6.090       0.2229E-2
    6.094       0.2212E-2
    6.098       0.2195E-2
    6.102       0.2179E-2
    6.106       0.2162E-2
    6.110       0.2146E-2
    6.114       0.2130E-2
    6.118       0.2115E-2
    6.123       0.2099E-2
    6.127       0.2084E-2
    6.131       0.2069E-2
    6.135       0.2054E-2
    6.139       0.2040E-2
    6.143       0.2026E-2
    6.147       0.2012E-2
    6.151       0.1998E-2
    6.155       0.1984E-2
    6.159       0.1971E-2
    6.163       0.1958E-2
    6.167       0.1945E-2
    6.171       0.1932E-2
    6.175       0.1920E-2
    6.179       0.1907E-2
    6.183       0.1895E-2
    6.187       0.1883E-2
    6.192       0.1871E-2
    6.196       0.1860E-2
    6.200       0.1848E-2
    6.204       0.1837E-2
    6.208       0.1826E-2
    6.212       0.1815E-2
    6.216       0.1804E-2
    6.220       0.1794E-2
    6.224       0.1783E-2
    6.228       0.1773E-2
    6.232       0.1763E-2
    6.236       0.1753E-2
    6.240       0.1743E-2
    6.244       0.1734E-2
    6.248       0.1724E-2
    6.252       0.1715E-2
    6.256       0.1706E-2
    6.260       0.1697E-2
    6.265       0.1688E-2
    6.269       0.1679E-2
    6.273       0.1671E-2
    6.277       0.1662E-2
    6.281       0.1654E-2
    6.285       0.1646E-2
    6.289       0.1638E-2
    6.293       0.1630E-2
    6.297       0.1623E-2
    6.301       0.1615E-2
    6.305       0.1608E-2
    6.309       0.1600E-2
    6.313       0.1593E-2
    6.317       0.1586E-2
    6.321       0.1579E-2
    6.325       0.1573E-2
    6.329       0.1566E-2
    6.334       0.1560E-2
    6.338       0.1553E-2
    6.342       0.1547E-2
    6.346       0.1541E-2
    6.350       0.1535E-2
    6.354       0.1529E-2
    6.358       0.1524E-2
    6.362       0.1518E-2
    6.366       0.1513E-2
    6.370       0.1507E-2
    6.374       0.1502E-2
    6.378       0.1497E-2
    6.382       0.1492E-2
    6.386       0.1487E-2
    6.390       0.1482E-2
    6.394       0.1478E-2
    6.398       0.1473E-2
    6.403       0.1469E-2
    6.407       0.1465E-2
    6.411       0.1461E-2
    6.415       0.1457E-2
    6.419       0.1453E-2
    6.423       0.1449E-2
    6.427       0.1446E-2
    6.431       0.1442E-2
    6.435       0.1439E-2
    6.439       0.1436E-2
    6.443       0.1433E-2
    6.447       0.1430E-2
    6.451       0.1427E-2
    6.455       0.1424E-2
    6.459       0.1422E-2
    6.463       0.1419E-2
    6.467       0.1417E-2
    6.471       0.1415E-2
    6.476       0.1413E-2
    6.480       0.1411E-2
    6.484       0.1409E-2
    6.488       0.1408E-2
    6.492       0.1406E-2
    6.496       0.1405E-2
    6.500       0.1404E-2
    6.504       0.1403E-2
    6.508       0.1402E-2
    6.512       0.1401E-2
    6.516       0.1400E-2
    6.520       0.1400E-2
    6.524       0.1399E-2
    6.528       0.1399E-2
    6.532       0.1399E-2
    6.536       0.1399E-2
    6.540       0.1400E-2
    6.545       0.1400E-2
    6.549       0.1401E-2
    6.553       0.1402E-2
    6.557       0.1403E-2
    6.561       0.1404E-2
    6.565       0.1405E-2
    6.569       0.1406E-2
    6.573       0.1408E-2
    6.577       0.1410E-2
    6.581       0.1412E-2
    6.585       0.1414E-2
    6.589       0.1417E-2
    6.593       0.1419E-2
    6.597       0.1422E-2
    6.601       0.1425E-2
    6.605       0.1428E-2
    6.609       0.1432E-2
    6.613       0.1435E-2
    6.618       0.1439E-2
    6.622       0.1443E-2
    6.626       0.1448E-2
    6.630       0.1452E-2
    6.634       0.1457E-2
    6.638       0.1462E-2
    6.642       0.1468E-2
    6.646       0.1473E-2
    6.650       0.1479E-2
    6.654       0.1485E-2
    6.658       0.1492E-2
    6.662       0.1499E-2
    6.666       0.1506E-2
    6.670       0.1513E-2
    6.674       0.1521E-2
    6.678       0.1529E-2
    6.682       0.1537E-2
    6.687       0.1546E-2
    6.691       0.1555E-2
    6.695       0.1565E-2
    6.699       0.1575E-2
    6.703       0.1585E-2
    6.707       0.1596E-2
    6.711       0.1607E-2
    6.715       0.1618E-2
    6.719       0.1631E-2
    6.723       0.1643E-2
    6.727       0.1656E-2
    6.731       0.1670E-2
    6.735       0.1684E-2
    6.739       0.1698E-2
    6.743       0.1713E-2
    6.747       0.1729E-2
    6.751       0.1745E-2
    6.756       0.1762E-2
    6.760       0.1780E-2
    6.764       0.1798E-2
    6.768       0.1817E-2
    6.772       0.1837E-2
    6.776       0.1858E-2
    6.780       0.1879E-2
    6.784       0.1901E-2
    6.788       0.1924E-2
    6.792       0.1948E-2
    6.796       0.1973E-2
    6.800       0.1999E-2
    6.804       0.2025E-2
    6.808       0.2053E-2
    6.812       0.2082E-2
    6.816       0.2113E-2
    6.820       0.2144E-2
    6.824       0.2177E-2
    6.829       0.2211E-2
    6.833       0.2246E-2
    6.837       0.2283E-2
    6.841       0.2322E-2
    6.845       0.2362E-2
    6.849       0.2404E-2
    6.853       0.2448E-2
    6.857       0.2494E-2
    6.861       0.2541E-2
    6.865       0.2591E-2
    6.869       0.2643E-2
    6.873       0.2697E-2
    6.877       0.2754E-2
    6.881       0.2814E-2
    6.885       0.2876E-2
    6.889       0.2941E-2
    6.893       0.3010E-2
    6.898       0.3082E-2
    6.902       0.3157E-2
    6.906       0.3236E-2
    6.910       0.3319E-2
    6.914       0.3407E-2
    6.918       0.3498E-2
    6.922       0.3595E-2
    6.926       0.3697E-2
    6.930       0.3805E-2
    6.934       0.3918E-2
    6.938       0.4038E-2
    6.942       0.4165E-2
    6.946       0.4299E-2
    6.950       0.4440E-2
    6.954       0.4591E-2
    6.958       0.4750E-2
    6.962       0.4920E-2
    6.966       0.5100E-2
    6.971       0.5292E-2
    6.975       0.5496E-2
    6.979       0.5715E-2
    6.983       0.5948E-2
    6.987       0.6197E-2
    6.991       0.6464E-2
    6.995       0.6750E-2
      6.9989       0.0071
      7.0030       0.0074
      7.0071       0.0077
      7.0111       0.0081
      7.0152       0.0085
      7.0192       0.0090
      7.0233       0.0095
     7.02735      0.01002
     7.03141      0.01060
     7.03547      0.01123
     7.03953      0.01192
     7.04358      0.01268
     7.04764      0.01351
     7.05170      0.01443
     7.05575      0.01544
     7.05981      0.01656
     7.06387      0.01780
     7.06793      0.01918
     7.07198      0.02072
     7.07604      0.02243
     7.08010      0.02436
     7.08416      0.02652
     7.08821      0.02894
     7.09227      0.03166
     7.09633      0.03473
     7.10039      0.03818
     7.10444      0.04206
     7.10850      0.04639
     7.11256      0.05121
     7.11662      0.05652
     7.12067      0.06229
     7.12473      0.06845
     7.12879      0.07485
     7.13285      0.08123
     7.13690      0.08726
     7.14096      0.09253
     7.14502      0.09658
     7.14908      0.09901
     7.15313      0.09954
     7.15719      0.09811
     7.16125      0.09489
     7.16531      0.09022
     7.16936      0.08455
     7.17342      0.07830
     7.17748      0.07187
     7.18154      0.06556
     7.18559      0.05956
     7.18965      0.05399
     7.19371      0.04890
     7.19777      0.04430
     7.20182      0.04018
     7.20588      0.03650
     7.20994      0.03323
     7.21400      0.03032
     7.21805      0.02773
     7.22211      0.02543
     7.22617      0.02338
     7.23023      0.02155
     7.23428      0.01992
     7.23834      0.01845
     7.24240      0.01713
     7.24646      0.01594
     7.25051      0.01487
     7.25457      0.01390
     7.25863      0.01302
     7.26269      0.01222
     7.26674      0.01149
     7.27080      0.01082
     7.27486      0.01021
      7.2789       0.0097
      7.2830       0.0091
      7.2870       0.0087
      7.2911       0.0082
      7.2951       0.0078
      7.2992       0.0074
    7.303       0.7097E-2
    7.307       0.6773E-2
    7.311       0.6471E-2
    7.315       0.6190E-2
    7.319       0.5928E-2
    7.324       0.5682E-2
    7.328       0.5453E-2
    7.332       0.5237E-2
    7.336       0.5035E-2
    7.340       0.4845E-2
    7.344       0.4666E-2
    7.348       0.4497E-2
    7.352       0.4338E-2
    7.356       0.4187E-2
    7.360       0.4045E-2
    7.364       0.3911E-2
    7.368       0.3783E-2
    7.372       0.3663E-2
    7.376       0.3548E-2
    7.380       0.3439E-2
    7.384       0.3336E-2
    7.388       0.3237E-2
    7.393       0.3144E-2
    7.397       0.3054E-2
    7.401       0.2969E-2
    7.405       0.2888E-2
    7.409       0.2810E-2
    7.413       0.2736E-2
    7.417       0.2665E-2
    7.421       0.2597E-2
    7.425       0.2532E-2
    7.429       0.2470E-2
    7.433       0.2410E-2
    7.437       0.2352E-2
    7.441       0.2297E-2
    7.445       0.2244E-2
    7.449       0.2193E-2
    7.453       0.2145E-2
    7.457       0.2098E-2
    7.462       0.2052E-2
    7.466       0.2009E-2
    7.470       0.1967E-2
    7.474       0.1926E-2
    7.478       0.1887E-2
    7.482       0.1849E-2
    7.486       0.1813E-2
    7.490       0.1778E-2
    7.494       0.1744E-2
    7.498       0.1711E-2
    7.502       0.1679E-2
    7.506       0.1648E-2
    7.510       0.1618E-2
    7.514       0.1590E-2
    7.518       0.1562E-2
    7.522       0.1535E-2
    7.526       0.1509E-2
    7.530       0.1483E-2
    7.535       0.1459E-2
    7.539       0.1435E-2
    7.543       0.1411E-2
    7.547       0.1389E-2
    7.551       0.1367E-2
    7.555       0.1346E-2
    7.559       0.1325E-2
    7.563       0.1305E-2
    7.567       0.1285E-2
    7.571       0.1266E-2
    7.575       0.1248E-2
    7.579       0.1230E-2
    7.583       0.1212E-2
    7.587       0.1195E-2
    7.591       0.1179E-2
    7.595       0.1163E-2
    7.599       0.1147E-2
    7.604       0.1131E-2
    7.608       0.1116E-2
    7.612       0.1102E-2
    7.616       0.1087E-2
    7.620       0.1074E-2
    7.624       0.1060E-2
    7.628       0.1047E-2
    7.632       0.1034E-2
    7.636       0.1021E-2
    7.640       0.1009E-2
    7.644       0.9966E-3
    7.648       0.9848E-3
# 
# 10/04/2018 at 21:25 YPP @ bacalhau [start]
# 10/04/2018 at 21:25                [end]
#
# .-Input file : yambo.in
# | excitons                       # [R] Excitons
# | amplitude                      # [R] Amplitude
# | BoseTemp= 0.000000     eV      # Bosonic Temperature
# | States= "1 - 1"                # Index of the BS state(s)
# | Qpts= 2                        # Index q of the BS state(s)
# | #DipWeight                     #  Weight the contribution to the exciton WFs with the dipoles
# | Degen_Step= 0.000000   eV      # Maximum energy separation of two degenerate states
