#                                                           
#                                                           
# Y88b    /   e           e    e      888~~\    ,88~-_      
#  Y88b  /   d8b         d8b  d8b     888   |  d888   \     
#   Y88b/   /Y88b       d888bdY88b    888 _/  88888    |    
#    Y8Y   /  Y88b     / Y88Y Y888b   888  \  88888    |    
#     Y   /____Y88b   /   YY   Y888b  888   |  Y888   /     
#    /   /      Y88b /          Y888b 888__/    `88_-~      
#                                                           
#                                                           
#       Version 4.3.0 Revision 15185 Hash 3effa9d           
#                  MPI+SLK+OpenMP Build                     
#               http://www.yambo-code.org                   
#
# Absorption @ Q(1) [q->0 direction] :0.5774E-5 0.5774E-5 0.5774E-5
#
#
# - Energies      are  Analyt. E
# - Wavefunctions are Teter 93(XC)
#
# - The Green`s function is Retarded -
# - Using the Length Gauge -
# - [r,Vnl] *is* included -
#
#   BSK|Identifier              :4616
#      |Dimension               :32
#      |Bands                   :7 - 10
#      |Exchange           [res]: yes
#      |Correlation        [res]: yes
#      |Kernel`s coupling       : no
#      |Exchange           [cpl]: no
#      |Correlation        [cpl]: no
#      |W interaction is bare   : yes
#      |ALDA kernel in R-space  : no
#      |RL vectors    [exchange]:51
#      |RL vectors [correlation]:51
#      |E/h energy range    [ev]:-1.000000 - -1.000000
#      |Coupling range     [o/o]: 100.0000 -  100.0000
#    W |Interaction is diagonal : yes
#      |Matrix size             :0
#   RIM|RL components      [col]:0
#      |Random points      [col]:0
#
#    E/ev[1]      EPS-Im[2]    EPS-Re[3]    EPSo-Im[4]   EPSo-Re[5]
#
     0.00000      0.00000     18.63779      0.00000      3.30065
   0.1001E-1    0.3956E-2     18.64       0.8098E-5     3.301   
   0.2003E-1    0.7914E-2     18.64       0.1620E-4     3.301   
   0.3004E-1    0.1188E-1     18.64       0.2429E-4     3.301   
   0.4005E-1    0.1584E-1     18.65       0.3239E-4     3.301   
   0.5006E-1    0.1982E-1     18.66       0.4049E-4     3.301   
   0.6008E-1    0.2381E-1     18.67       0.4859E-4     3.301   
   0.7009E-1    0.2781E-1     18.68       0.5669E-4     3.301   
   0.8010E-1    0.3183E-1     18.69       0.6479E-4     3.301   
   0.9011E-1    0.3586E-1     18.70       0.7289E-4     3.301   
   0.1001       0.3992E-1     18.72       0.8099E-4     3.301   
   0.1101       0.4399E-1     18.73       0.8909E-4     3.301   
   0.1202       0.4809E-1     18.75       0.9719E-4     3.301   
   0.1302       0.5222E-1     18.77       0.1053E-3     3.301   
   0.1402       0.5638E-1     18.79       0.1134E-3     3.301   
   0.1502       0.6056E-1     18.82       0.1215E-3     3.301   
   0.1602       0.6478E-1     18.84       0.1296E-3     3.301   
   0.1702       0.6904E-1     18.87       0.1377E-3     3.301   
   0.1802       0.7334E-1     18.90       0.1458E-3     3.301   
   0.1902       0.7768E-1     18.93       0.1539E-3     3.301   
   0.2003       0.8206E-1     18.96       0.1620E-3     3.301   
   0.2103       0.8650E-1     18.99       0.1702E-3     3.301   
   0.2203       0.9098E-1     19.03       0.1783E-3     3.301   
   0.2303       0.9551E-1     19.07       0.1864E-3     3.302   
   0.2403       0.1001        19.11       0.1945E-3     3.302   
   0.2503       0.1047        19.15       0.2026E-3     3.302   
   0.2603       0.1095        19.19       0.2107E-3     3.302   
   0.2703       0.1142        19.23       0.2189E-3     3.302   
   0.2804       0.1191        19.28       0.2270E-3     3.302   
   0.2904       0.1240        19.33       0.2351E-3     3.302   
   0.3004       0.1290        19.38       0.2432E-3     3.302   
   0.3104       0.1341        19.43       0.2514E-3     3.302   
   0.3204       0.1392        19.49       0.2595E-3     3.302   
   0.3304       0.1445        19.54       0.2676E-3     3.302   
   0.3404       0.1498        19.60       0.2758E-3     3.303   
   0.3504       0.1552        19.66       0.2839E-3     3.303   
   0.3605       0.1608        19.73       0.2921E-3     3.303   
   0.3705       0.1664        19.79       0.3002E-3     3.303   
   0.3805       0.1722        19.86       0.3083E-3     3.303   
   0.3905       0.1780        19.93       0.3165E-3     3.303   
   0.4005       0.1840        20.00       0.3246E-3     3.303   
   0.4105       0.1901        20.08       0.3328E-3     3.303   
   0.4205       0.1963        20.15       0.3410E-3     3.304   
   0.4305       0.2027        20.23       0.3491E-3     3.304   
   0.4406       0.2092        20.32       0.3573E-3     3.304   
   0.4506       0.2159        20.40       0.3655E-3     3.304   
   0.4606       0.2227        20.49       0.3736E-3     3.304   
   0.4706       0.2297        20.58       0.3818E-3     3.304   
   0.4806       0.2369        20.67       0.3900E-3     3.304   
   0.4906       0.2442        20.77       0.3981E-3     3.305   
   0.5006       0.2517        20.87       0.4063E-3     3.305   
   0.5106       0.2594        20.97       0.4145E-3     3.305   
   0.5207       0.2673        21.08       0.4227E-3     3.305   
   0.5307       0.2755        21.18       0.4309E-3     3.305   
   0.5407       0.2838        21.30       0.4391E-3     3.305   
   0.5507       0.2924        21.41       0.4473E-3     3.306   
   0.5607       0.3012        21.53       0.4555E-3     3.306   
   0.5707       0.3103        21.65       0.4637E-3     3.306   
   0.5807       0.3197        21.78       0.4719E-3     3.306   
   0.5907       0.3293        21.91       0.4801E-3     3.306   
   0.6008       0.3392        22.04       0.4884E-3     3.307   
   0.6108       0.3494        22.18       0.4966E-3     3.307   
   0.6208       0.3600        22.32       0.5048E-3     3.307   
   0.6308       0.3709        22.47       0.5130E-3     3.307   
   0.6408       0.3821        22.62       0.5213E-3     3.307   
   0.6508       0.3938        22.77       0.5295E-3     3.308   
   0.6608       0.4058        22.93       0.5378E-3     3.308   
   0.6708       0.4182        23.10       0.5460E-3     3.308   
   0.6809       0.4311        23.27       0.5543E-3     3.308   
   0.6909       0.4444        23.44       0.5625E-3     3.308   
   0.7009       0.4582        23.62       0.5708E-3     3.309   
   0.7109       0.4725        23.81       0.5791E-3     3.309   
   0.7209       0.4873        24.00       0.5873E-3     3.309   
   0.7309       0.5027        24.20       0.5956E-3     3.309   
   0.7409       0.5187        24.40       0.6039E-3     3.310   
   0.7509       0.5353        24.61       0.6122E-3     3.310   
   0.7610       0.5526        24.83       0.6205E-3     3.310   
   0.7710       0.5706        25.05       0.6288E-3     3.310   
   0.7810       0.5893        25.29       0.6371E-3     3.311   
   0.7910       0.6088        25.52       0.6454E-3     3.311   
   0.8010       0.6291        25.77       0.6537E-3     3.311   
   0.8110       0.6503        26.03       0.6621E-3     3.311   
   0.8210       0.6724        26.29       0.6704E-3     3.312   
   0.8310       0.6956        26.56       0.6787E-3     3.312   
   0.8411       0.7198        26.85       0.6871E-3     3.312   
   0.8511       0.7451        27.14       0.6954E-3     3.312   
   0.8611       0.7716        27.44       0.7038E-3     3.313   
   0.8711       0.7994        27.75       0.7121E-3     3.313   
   0.8811       0.8285        28.08       0.7205E-3     3.313   
   0.8911       0.8591        28.42       0.7288E-3     3.314   
   0.9011       0.8913        28.77       0.7372E-3     3.314   
   0.9111       0.9251        29.13       0.7456E-3     3.314   
   0.9212       0.9607        29.50       0.7540E-3     3.314   
   0.9312       0.9982        29.89       0.7624E-3     3.315   
   0.9412        1.038        30.30       0.7708E-3     3.315   
   0.9512        1.080        30.72       0.7792E-3     3.315   
   0.9612        1.124        31.16       0.7876E-3     3.316   
   0.9712        1.170        31.62       0.7960E-3     3.316   
   0.9812        1.220        32.09       0.8045E-3     3.316   
   0.9912        1.273        32.59       0.8129E-3     3.317   
    1.001        1.328        33.11       0.8214E-3     3.317   
    1.011        1.388        33.65       0.8298E-3     3.317   
    1.021        1.451        34.21       0.8383E-3     3.318   
    1.031        1.518        34.81       0.8467E-3     3.318   
    1.041        1.590        35.42       0.8552E-3     3.318   
    1.051        1.667        36.07       0.8637E-3     3.319   
    1.061        1.750        36.75       0.8722E-3     3.319   
    1.071        1.838        37.46       0.8807E-3     3.319   
    1.081        1.933        38.21       0.8892E-3     3.320   
    1.091        2.035        39.00       0.8977E-3     3.320   
    1.101        2.146        39.83       0.9062E-3     3.320   
    1.111        2.265        40.71       0.9147E-3     3.321   
    1.121        2.394        41.63       0.9233E-3     3.321   
    1.131        2.535        42.61       0.9318E-3     3.322   
    1.141        2.688        43.64       0.9403E-3     3.322   
    1.151        2.854        44.74       0.9489E-3     3.322   
    1.161        3.037        45.90       0.9575E-3     3.323   
    1.171        3.237        47.14       0.9660E-3     3.323   
    1.181        3.457        48.46       0.9746E-3     3.323   
    1.191        3.701        49.88       0.9832E-3     3.324   
    1.202        3.970        51.39       0.9918E-3     3.324   
    1.212        4.270        53.01       0.1000E-2     3.325   
    1.222        4.605        54.75       0.1009E-2     3.325   
    1.232        4.981        56.63       0.1018E-2     3.325   
    1.242        5.406        58.67       0.1026E-2     3.326   
    1.252        5.888        60.87       0.1035E-2     3.326   
    1.262        6.441        63.27       0.1044E-2     3.327   
    1.272        7.080        65.89       0.1052E-2     3.327   
    1.282        7.828        68.75       0.1061E-2     3.328   
    1.292        8.711        71.88       0.1070E-2     3.328   
    1.302        9.747        75.28       0.1078E-2     3.328   
    1.312        10.90        78.98       0.1087E-2     3.329   
    1.322        12.16        83.13       0.1096E-2     3.329   
    1.332        13.63        87.87       0.1104E-2     3.330   
    1.342        15.44        93.28       0.1113E-2     3.330   
    1.352        17.71        99.45       0.1122E-2     3.331   
    1.362        20.55        106.5       0.1131E-2     3.331   
    1.372        24.15        114.7       0.1139E-2     3.331   
    1.382        28.79        124.1       0.1148E-2     3.332   
    1.392        34.88        135.3       0.1157E-2     3.332   
    1.402        43.07        148.4       0.1166E-2     3.333   
    1.412        54.39        164.2       0.1175E-2     3.333   
    1.422        70.55        183.0       0.1183E-2     3.334   
    1.432        94.47        205.3       0.1192E-2     3.334   
    1.442        131.3        230.5       0.1201E-2     3.335   
    1.452        189.7        254.6       0.1210E-2     3.335   
    1.462        282.0        262.7       0.1219E-2     3.336   
    1.472        409.4        214.9       0.1228E-2     3.336   
    1.482        510.2        62.11       0.1236E-2     3.337   
    1.492        476.5       -132.5       0.1245E-2     3.337   
    1.502        349.8       -235.9       0.1254E-2     3.338   
    1.512        235.9       -251.8       0.1263E-2     3.338   
    1.522        160.2       -233.4       0.1272E-2     3.339   
    1.532        112.8       -207.9       0.1281E-2     3.339   
    1.542        82.56       -183.8       0.1290E-2     3.340   
    1.552        62.57       -163.1       0.1299E-2     3.340   
    1.562        48.85       -145.7       0.1308E-2     3.341   
    1.572        39.08       -131.2       0.1317E-2     3.341   
    1.582        31.92       -119.0       0.1326E-2     3.342   
    1.592        26.53       -108.7       0.1335E-2     3.342   
    1.602        22.38       -99.83       0.1344E-2     3.343   
    1.612        19.12       -92.21       0.1353E-2     3.343   
    1.622        16.52       -85.59       0.1362E-2     3.344   
    1.632        14.41       -79.78       0.1371E-2     3.345   
    1.642        12.67       -74.65       0.1380E-2     3.345   
    1.652        11.23       -70.10       0.1389E-2     3.346   
    1.662        10.02       -66.02       0.1398E-2     3.346   
    1.672        8.995       -62.36       0.1407E-2     3.347   
    1.682        8.117       -59.05       0.1416E-2     3.347   
    1.692        7.361       -56.05       0.1425E-2     3.348   
    1.702        6.705       -53.31       0.1435E-2     3.348   
    1.712        6.132       -50.81       0.1444E-2     3.349   
    1.722        5.629       -48.51       0.1453E-2     3.350   
    1.732        5.186       -46.39       0.1462E-2     3.350   
    1.742        4.792       -44.43       0.1471E-2     3.351   
    1.752        4.441       -42.62       0.1480E-2     3.351   
    1.762        4.127       -40.94       0.1490E-2     3.352   
    1.772        3.845       -39.36       0.1499E-2     3.353   
    1.782        3.591       -37.90       0.1508E-2     3.353   
    1.792        3.360       -36.53       0.1517E-2     3.354   
    1.802        3.152       -35.24       0.1527E-2     3.354   
    1.812        2.962       -34.03       0.1536E-2     3.355   
    1.822        2.788       -32.89       0.1545E-2     3.356   
    1.832        2.629       -31.82       0.1555E-2     3.356   
    1.842        2.483       -30.81       0.1564E-2     3.357   
    1.852        2.349       -29.85       0.1573E-2     3.358   
    1.862        2.225       -28.94       0.1583E-2     3.358   
    1.872        2.111       -28.08       0.1592E-2     3.359   
    1.882        2.005       -27.26       0.1601E-2     3.359   
    1.892        1.907       -26.49       0.1611E-2     3.360   
    1.902        1.816       -25.75       0.1620E-2     3.361   
    1.912        1.731       -25.04       0.1630E-2     3.361   
    1.922        1.652       -24.37       0.1639E-2     3.362   
    1.932        1.578       -23.73       0.1649E-2     3.363   
    1.942        1.509       -23.11       0.1658E-2     3.363   
    1.952        1.445       -22.52       0.1667E-2     3.364   
    1.962        1.384       -21.96       0.1677E-2     3.365   
    1.972        1.327       -21.42       0.1686E-2     3.365   
    1.982        1.273       -20.90       0.1696E-2     3.366   
    1.992        1.223       -20.41       0.1706E-2     3.367   
    2.003        1.175       -19.93       0.1715E-2     3.367   
    2.013        1.131       -19.47       0.1725E-2     3.368   
    2.023        1.088       -19.03       0.1734E-2     3.369   
    2.033        1.048       -18.60       0.1744E-2     3.369   
    2.043        1.010       -18.19       0.1754E-2     3.370   
    2.053       0.9742       -17.79       0.1763E-2     3.371   
    2.063       0.9401       -17.41       0.1773E-2     3.372   
    2.073       0.9077       -17.04       0.1783E-2     3.372   
    2.083       0.8769       -16.69       0.1792E-2     3.373   
    2.093       0.8477       -16.34       0.1802E-2     3.374   
    2.103       0.8199       -16.01       0.1812E-2     3.374   
    2.113       0.7934       -15.69       0.1821E-2     3.375   
    2.123       0.7681       -15.38       0.1831E-2     3.376   
    2.133       0.7440       -15.08       0.1841E-2     3.377   
    2.143       0.7210       -14.78       0.1851E-2     3.377   
    2.153       0.6990       -14.50       0.1861E-2     3.378   
    2.163       0.6780       -14.22       0.1870E-2     3.379   
    2.173       0.6579       -13.96       0.1880E-2     3.380   
    2.183       0.6387       -13.70       0.1890E-2     3.380   
    2.193       0.6203       -13.45       0.1900E-2     3.381   
    2.203       0.6026       -13.20       0.1910E-2     3.382   
    2.213       0.5857       -12.97       0.1920E-2     3.383   
    2.223       0.5695       -12.74       0.1930E-2     3.383   
    2.233       0.5539       -12.51       0.1940E-2     3.384   
    2.243       0.5390       -12.29       0.1950E-2     3.385   
    2.253       0.5246       -12.08       0.1960E-2     3.386   
    2.263       0.5108       -11.87       0.1970E-2     3.387   
    2.273       0.4976       -11.67       0.1980E-2     3.387   
    2.283       0.4848       -11.48       0.1990E-2     3.388   
    2.293       0.4725       -11.28       0.2000E-2     3.389   
    2.303       0.4607       -11.10       0.2010E-2     3.390   
    2.313       0.4493       -10.92       0.2020E-2     3.391   
    2.323       0.4383       -10.74       0.2030E-2     3.391   
    2.333       0.4278       -10.57       0.2040E-2     3.392   
    2.343       0.4176       -10.40       0.2050E-2     3.393   
    2.353       0.4078       -10.23       0.2061E-2     3.394   
    2.363       0.3984       -10.07       0.2071E-2     3.395   
    2.373       0.3894       -9.913       0.2081E-2     3.395   
    2.383       0.3807       -9.759       0.2091E-2     3.396   
    2.393       0.3723       -9.608       0.2102E-2     3.397   
    2.403       0.3644       -9.461       0.2112E-2     3.398   
    2.413       0.3569       -9.317       0.2122E-2     3.399   
    2.423       0.3499       -9.176       0.2132E-2     3.400   
    2.433       0.3435       -9.038       0.2143E-2     3.401   
    2.443       0.3379       -8.903       0.2153E-2     3.401   
    2.453       0.3335       -8.770       0.2164E-2     3.402   
    2.463       0.3309       -8.640       0.2174E-2     3.403   
    2.473       0.3310       -8.515       0.2184E-2     3.404   
    2.483       0.3326       -8.397       0.2195E-2     3.405   
    2.493       0.3301       -8.289       0.2205E-2     3.406   
    2.503       0.3189       -8.182       0.2216E-2     3.407   
    2.513       0.3048       -8.070       0.2226E-2     3.408   
    2.523       0.2928       -7.957       0.2237E-2     3.408   
    2.533       0.2832       -7.845       0.2247E-2     3.409   
    2.543       0.2753       -7.734       0.2258E-2     3.410   
    2.553       0.2684       -7.626       0.2269E-2     3.411   
    2.563       0.2622       -7.521       0.2279E-2     3.412   
    2.573       0.2565       -7.417       0.2290E-2     3.413   
    2.583       0.2511       -7.316       0.2301E-2     3.414   
    2.593       0.2460       -7.216       0.2311E-2     3.415   
    2.603       0.2411       -7.119       0.2322E-2     3.416   
    2.613       0.2364       -7.024       0.2333E-2     3.417   
    2.623       0.2319       -6.930       0.2343E-2     3.418   
    2.633       0.2275       -6.838       0.2354E-2     3.419   
    2.643       0.2233       -6.748       0.2365E-2     3.420   
    2.653       0.2192       -6.660       0.2376E-2     3.420   
    2.663       0.2152       -6.573       0.2387E-2     3.421   
    2.673       0.2113       -6.487       0.2398E-2     3.422   
    2.683       0.2075       -6.404       0.2408E-2     3.423   
    2.693       0.2039       -6.321       0.2419E-2     3.424   
    2.703       0.2003       -6.240       0.2430E-2     3.425   
    2.713       0.1968       -6.161       0.2441E-2     3.426   
    2.723       0.1935       -6.083       0.2452E-2     3.427   
    2.733       0.1902       -6.006       0.2463E-2     3.428   
    2.743       0.1870       -5.931       0.2474E-2     3.429   
    2.753       0.1838       -5.856       0.2485E-2     3.430   
    2.763       0.1808       -5.784       0.2496E-2     3.431   
    2.773       0.1778       -5.712       0.2508E-2     3.432   
    2.783       0.1749       -5.641       0.2519E-2     3.433   
    2.793       0.1720       -5.572       0.2530E-2     3.434   
    2.804       0.1693       -5.504       0.2541E-2     3.435   
    2.814       0.1665       -5.436       0.2552E-2     3.436   
    2.824       0.1639       -5.370       0.2564E-2     3.437   
    2.834       0.1613       -5.305       0.2575E-2     3.438   
    2.844       0.1588       -5.241       0.2586E-2     3.439   
    2.854       0.1563       -5.178       0.2597E-2     3.440   
    2.864       0.1539       -5.116       0.2609E-2     3.441   
    2.874       0.1515       -5.055       0.2620E-2     3.442   
    2.884       0.1492       -4.995       0.2632E-2     3.444   
    2.894       0.1470       -4.935       0.2643E-2     3.445   
    2.904       0.1448       -4.877       0.2654E-2     3.446   
    2.914       0.1426       -4.820       0.2666E-2     3.447   
    2.924       0.1405       -4.763       0.2677E-2     3.448   
    2.934       0.1384       -4.707       0.2689E-2     3.449   
    2.944       0.1364       -4.652       0.2701E-2     3.450   
    2.954       0.1344       -4.598       0.2712E-2     3.451   
    2.964       0.1325       -4.545       0.2724E-2     3.452   
    2.974       0.1306       -4.492       0.2735E-2     3.453   
    2.984       0.1287       -4.440       0.2747E-2     3.454   
    2.994       0.1269       -4.389       0.2759E-2     3.455   
    3.004       0.1251       -4.338       0.2770E-2     3.457   
    3.014       0.1233       -4.289       0.2782E-2     3.458   
    3.024       0.1216       -4.240       0.2794E-2     3.459   
    3.034       0.1199       -4.191       0.2806E-2     3.460   
    3.044       0.1183       -4.144       0.2818E-2     3.461   
    3.054       0.1167       -4.097       0.2830E-2     3.462   
    3.064       0.1151       -4.050       0.2841E-2     3.463   
    3.074       0.1136       -4.004       0.2853E-2     3.464   
    3.084       0.1120       -3.959       0.2865E-2     3.466   
    3.094       0.1105       -3.915       0.2877E-2     3.467   
    3.104       0.1091       -3.871       0.2889E-2     3.468   
    3.114       0.1076       -3.827       0.2901E-2     3.469   
    3.124       0.1062       -3.785       0.2914E-2     3.470   
    3.134       0.1049       -3.742       0.2926E-2     3.471   
    3.144       0.1035       -3.701       0.2938E-2     3.473   
    3.154       0.1022       -3.660       0.2950E-2     3.474   
    3.164       0.1009       -3.619       0.2962E-2     3.475   
    3.174       0.9958E-1    -3.579       0.2974E-2     3.476   
    3.184       0.9832E-1    -3.539       0.2987E-2     3.477   
    3.194       0.9708E-1    -3.500       0.2999E-2     3.478   
    3.204       0.9587E-1    -3.461       0.3011E-2     3.480   
    3.214       0.9468E-1    -3.423       0.3024E-2     3.481   
    3.224       0.9351E-1    -3.386       0.3036E-2     3.482   
    3.234       0.9236E-1    -3.348       0.3048E-2     3.483   
    3.244       0.9123E-1    -3.312       0.3061E-2     3.485   
    3.254       0.9013E-1    -3.275       0.3073E-2     3.486   
    3.264       0.8904E-1    -3.240       0.3086E-2     3.487   
    3.274       0.8797E-1    -3.204       0.3098E-2     3.488   
    3.284       0.8692E-1    -3.169       0.3111E-2     3.489   
    3.294       0.8589E-1    -3.135       0.3124E-2     3.491   
    3.304       0.8487E-1    -3.100       0.3136E-2     3.492   
    3.314       0.8387E-1    -3.067       0.3149E-2     3.493   
    3.324       0.8289E-1    -3.033       0.3162E-2     3.494   
    3.334       0.8193E-1    -3.000       0.3175E-2     3.496   
    3.344       0.8098E-1    -2.968       0.3187E-2     3.497   
    3.354       0.8005E-1    -2.935       0.3200E-2     3.498   
    3.364       0.7914E-1    -2.903       0.3213E-2     3.500   
    3.374       0.7824E-1    -2.872       0.3226E-2     3.501   
    3.384       0.7735E-1    -2.841       0.3239E-2     3.502   
    3.394       0.7648E-1    -2.810       0.3252E-2     3.503   
    3.404       0.7562E-1    -2.780       0.3265E-2     3.505   
    3.414       0.7478E-1    -2.749       0.3278E-2     3.506   
    3.424       0.7395E-1    -2.720       0.3291E-2     3.507   
    3.434       0.7314E-1    -2.690       0.3304E-2     3.509   
    3.444       0.7234E-1    -2.661       0.3317E-2     3.510   
    3.454       0.7155E-1    -2.632       0.3330E-2     3.511   
    3.464       0.7077E-1    -2.604       0.3344E-2     3.513   
    3.474       0.7001E-1    -2.576       0.3357E-2     3.514   
    3.484       0.6926E-1    -2.548       0.3370E-2     3.515   
    3.494       0.6852E-1    -2.520       0.3383E-2     3.517   
    3.504       0.6779E-1    -2.493       0.3397E-2     3.518   
    3.514       0.6708E-1    -2.466       0.3410E-2     3.519   
    3.524       0.6637E-1    -2.439       0.3424E-2     3.521   
    3.534       0.6568E-1    -2.413       0.3437E-2     3.522   
    3.544       0.6499E-1    -2.387       0.3451E-2     3.524   
    3.554       0.6432E-1    -2.361       0.3464E-2     3.525   
    3.564       0.6366E-1    -2.335       0.3478E-2     3.526   
    3.574       0.6301E-1    -2.310       0.3491E-2     3.528   
    3.584       0.6236E-1    -2.285       0.3505E-2     3.529   
    3.594       0.6173E-1    -2.260       0.3519E-2     3.531   
    3.605       0.6111E-1    -2.235       0.3533E-2     3.532   
    3.615       0.6050E-1    -2.211       0.3546E-2     3.533   
    3.625       0.5989E-1    -2.187       0.3560E-2     3.535   
    3.635       0.5930E-1    -2.163       0.3574E-2     3.536   
    3.645       0.5871E-1    -2.139       0.3588E-2     3.538   
    3.655       0.5814E-1    -2.116       0.3602E-2     3.539   
    3.665       0.5757E-1    -2.093       0.3616E-2     3.541   
    3.675       0.5701E-1    -2.070       0.3630E-2     3.542   
    3.685       0.5646E-1    -2.047       0.3644E-2     3.543   
    3.695       0.5591E-1    -2.025       0.3658E-2     3.545   
    3.705       0.5538E-1    -2.002       0.3672E-2     3.546   
    3.715       0.5485E-1    -1.980       0.3686E-2     3.548   
    3.725       0.5433E-1    -1.958       0.3701E-2     3.549   
    3.735       0.5382E-1    -1.937       0.3715E-2     3.551   
    3.745       0.5331E-1    -1.915       0.3729E-2     3.552   
    3.755       0.5281E-1    -1.894       0.3744E-2     3.554   
    3.765       0.5232E-1    -1.873       0.3758E-2     3.555   
    3.775       0.5184E-1    -1.852       0.3773E-2     3.557   
      3.7847       0.0514      -1.8315       0.0038       3.5584
      3.7947       0.0509      -1.8110       0.0038       3.5599
      3.8048       0.0504      -1.7907       0.0038       3.5614
      3.8148       0.0500      -1.7706       0.0038       3.5629
      3.8248       0.0495      -1.7507       0.0038       3.5645
      3.8348       0.0491      -1.7310       0.0039       3.5660
      3.8448       0.0486      -1.7114       0.0039       3.5676
      3.8548       0.0482      -1.6920       0.0039       3.5691
      3.8648       0.0478      -1.6728       0.0039       3.5707
      3.8748       0.0474      -1.6538       0.0039       3.5723
      3.8849       0.0470      -1.6349       0.0039       3.5738
      3.8949       0.0466      -1.6161       0.0039       3.5754
      3.9049       0.0462      -1.5976       0.0040       3.5770
      3.9149       0.0458      -1.5792       0.0040       3.5786
      3.9249       0.0454      -1.5609       0.0040       3.5802
      3.9349       0.0450      -1.5429       0.0040       3.5818
      3.9449       0.0446      -1.5249       0.0040       3.5834
      3.9549       0.0442      -1.5071       0.0040       3.5850
      3.9650       0.0439      -1.4895       0.0041       3.5866
      3.9750       0.0435      -1.4720       0.0041       3.5883
      3.9850       0.0431      -1.4547       0.0041       3.5899
      3.9950       0.0428      -1.4375       0.0041       3.5915
      4.0050       0.0424      -1.4204       0.0041       3.5932
      4.0150       0.0421      -1.4035       0.0041       3.5948
      4.0250       0.0417      -1.3867       0.0041       3.5965
      4.0350       0.0414      -1.3701       0.0042       3.5981
      4.0451       0.0411      -1.3535       0.0042       3.5998
      4.0551       0.0408      -1.3372       0.0042       3.6015
      4.0651       0.0404      -1.3209       0.0042       3.6032
      4.0751       0.0401      -1.3048       0.0042       3.6049
      4.0851       0.0398      -1.2888       0.0042       3.6066
      4.0951       0.0395      -1.2729       0.0043       3.6083
      4.1051       0.0392      -1.2571       0.0043       3.6100
      4.1151       0.0389      -1.2415       0.0043       3.6117
      4.1252       0.0386      -1.2260       0.0043       3.6134
      4.1352       0.0383      -1.2106       0.0043       3.6151
      4.1452       0.0380      -1.1953       0.0043       3.6169
      4.1552       0.0377      -1.1802       0.0044       3.6186
      4.1652       0.0375      -1.1651       0.0044       3.6204
      4.1752       0.0372      -1.1502       0.0044       3.6221
      4.1852       0.0369      -1.1353       0.0044       3.6239
      4.1952       0.0366      -1.1206       0.0044       3.6257
      4.2053       0.0364      -1.1060       0.0044       3.6274
      4.2153       0.0361      -1.0915       0.0045       3.6292
      4.2253       0.0359      -1.0771       0.0045       3.6310
      4.2353       0.0356      -1.0628       0.0045       3.6328
      4.2453       0.0353      -1.0486       0.0045       3.6346
      4.2553       0.0351      -1.0344       0.0045       3.6364
      4.2653       0.0349      -1.0204       0.0045       3.6382
      4.2753       0.0346      -1.0065       0.0046       3.6400
      4.2854       0.0344      -0.9927       0.0046       3.6419
      4.2954       0.0341      -0.9790       0.0046       3.6437
      4.3054       0.0339      -0.9654       0.0046       3.6455
      4.3154       0.0337      -0.9518       0.0046       3.6474
      4.3254       0.0335      -0.9384       0.0046       3.6492
      4.3354       0.0332      -0.9250       0.0047       3.6511
      4.3454       0.0330      -0.9118       0.0047       3.6530
      4.3554       0.0328      -0.8986       0.0047       3.6549
      4.3655       0.0326      -0.8855       0.0047       3.6567
      4.3755       0.0324      -0.8725       0.0047       3.6586
      4.3855       0.0322      -0.8595       0.0047       3.6605
      4.3955       0.0320      -0.8467       0.0048       3.6624
      4.4055       0.0318      -0.8339       0.0048       3.6643
      4.4155       0.0316      -0.8212       0.0048       3.6663
      4.4255       0.0314      -0.8086       0.0048       3.6682
      4.4355       0.0312      -0.7961       0.0048       3.6701
      4.4456       0.0310      -0.7836       0.0049       3.6721
      4.4556       0.0308      -0.7713       0.0049       3.6740
      4.4656       0.0306      -0.7589       0.0049       3.6760
      4.4756       0.0305      -0.7467       0.0049       3.6779
      4.4856       0.0303      -0.7345       0.0049       3.6799
      4.4956       0.0301      -0.7224       0.0049       3.6819
      4.5056       0.0299      -0.7104       0.0050       3.6838
      4.5156       0.0298      -0.6985       0.0050       3.6858
      4.5257       0.0296      -0.6866       0.0050       3.6878
      4.5357       0.0294      -0.6748       0.0050       3.6898
      4.5457       0.0293      -0.6630       0.0050       3.6919
      4.5557       0.0291      -0.6513       0.0051       3.6939
      4.5657       0.0290      -0.6397       0.0051       3.6959
      4.5757       0.0288      -0.6281       0.0051       3.6979
      4.5857       0.0287      -0.6166       0.0051       3.7000
      4.5957       0.0285      -0.6051       0.0051       3.7020
      4.6058       0.0284      -0.5938       0.0052       3.7041
      4.6158       0.0282      -0.5824       0.0052       3.7062
      4.6258       0.0281      -0.5711       0.0052       3.7082
      4.6358       0.0279      -0.5599       0.0052       3.7103
      4.6458       0.0278      -0.5488       0.0052       3.7124
      4.6558       0.0277      -0.5376       0.0052       3.7145
      4.6658       0.0275      -0.5266       0.0053       3.7166
      4.6758       0.0274      -0.5156       0.0053       3.7187
      4.6859       0.0273      -0.5046       0.0053       3.7208
      4.6959       0.0272      -0.4937       0.0053       3.7230
      4.7059       0.0270      -0.4829       0.0053       3.7251
      4.7159       0.0269      -0.4721       0.0054       3.7273
      4.7259       0.0268      -0.4613       0.0054       3.7294
      4.7359       0.0267      -0.4506       0.0054       3.7316
      4.7459       0.0266      -0.4399       0.0054       3.7337
      4.7559       0.0265      -0.4293       0.0054       3.7359
      4.7660       0.0264      -0.4187       0.0055       3.7381
      4.7760       0.0263      -0.4082       0.0055       3.7403
      4.7860       0.0262      -0.3977       0.0055       3.7425
      4.7960       0.0261      -0.3872       0.0055       3.7447
      4.8060       0.0260      -0.3768       0.0055       3.7469
      4.8160       0.0259      -0.3664       0.0056       3.7491
      4.8260       0.0258      -0.3561       0.0056       3.7514
      4.8360       0.0257      -0.3458       0.0056       3.7536
      4.8461       0.0256      -0.3355       0.0056       3.7559
      4.8561       0.0255      -0.3253       0.0056       3.7581
      4.8661       0.0254      -0.3151       0.0057       3.7604
      4.8761       0.0254      -0.3049       0.0057       3.7627
      4.8861       0.0253      -0.2948       0.0057       3.7649
      4.8961       0.0252      -0.2846       0.0057       3.7672
      4.9061       0.0251      -0.2746       0.0058       3.7695
      4.9161       0.0251      -0.2645       0.0058       3.7718
      4.9262       0.0250      -0.2545       0.0058       3.7742
      4.9362       0.0249      -0.2445       0.0058       3.7765
      4.9462       0.0249      -0.2345       0.0058       3.7788
      4.9562       0.0248      -0.2246       0.0059       3.7812
      4.9662       0.0247      -0.2147       0.0059       3.7835
      4.9762       0.0247      -0.2048       0.0059       3.7859
      4.9862       0.0246      -0.1949       0.0059       3.7883
      4.9962       0.0246      -0.1850       0.0060       3.7906
      5.0063       0.0245      -0.1752       0.0060       3.7930
      5.0163       0.0245      -0.1654       0.0060       3.7954
      5.0263       0.0245      -0.1556       0.0060       3.7978
      5.0363       0.0244      -0.1458       0.0060       3.8002
      5.0463       0.0244      -0.1360       0.0061       3.8027
      5.0563       0.0244      -0.1263       0.0061       3.8051
      5.0663       0.0243      -0.1165       0.0061       3.8075
      5.0763       0.0243      -0.1068       0.0061       3.8100
      5.0864       0.0243      -0.0971       0.0062       3.8124
      5.0964       0.0243      -0.0873       0.0062       3.8149
      5.1064       0.0242      -0.0776       0.0062       3.8174
      5.1164       0.0242      -0.0679       0.0062       3.8199
      5.1264       0.0242      -0.0582       0.0062       3.8224
      5.1364       0.0242      -0.0485       0.0063       3.8249
      5.1464       0.0242      -0.0388       0.0063       3.8274
      5.1564       0.0242      -0.0292       0.0063       3.8299
      5.1665       0.0242      -0.0195       0.0063       3.8325
      5.1765       0.0242      -0.0098       0.0064       3.8350
    5.186       0.2422E-1    -.7844E-4    0.6388E-2     3.838   
      5.1965       0.0242       0.0096       0.0064       3.8401
      5.2065       0.0243       0.0193       0.0064       3.8427
      5.2165       0.0243       0.0290       0.0065       3.8453
      5.2265       0.0243       0.0388       0.0065       3.8479
      5.2365       0.0243       0.0485       0.0065       3.8505
      5.2466       0.0244       0.0582       0.0065       3.8531
      5.2566       0.0244       0.0680       0.0066       3.8557
      5.2666       0.0244       0.0778       0.0066       3.8583
      5.2766       0.0245       0.0876       0.0066       3.8610
      5.2866       0.0245       0.0974       0.0066       3.8636
      5.2966       0.0246       0.1072       0.0067       3.8663
      5.3066       0.0247       0.1171       0.0067       3.8690
      5.3166       0.0247       0.1270       0.0067       3.8716
      5.3267       0.0248       0.1369       0.0067       3.8743
      5.3367       0.0249       0.1468       0.0068       3.8770
      5.3467       0.0250       0.1568       0.0068       3.8797
      5.3567       0.0251       0.1668       0.0068       3.8825
      5.3667       0.0251       0.1769       0.0068       3.8852
      5.3767       0.0252       0.1869       0.0069       3.8879
      5.3867       0.0254       0.1971       0.0069       3.8907
      5.3967       0.0255       0.2072       0.0069       3.8935
      5.4068       0.0256       0.2175       0.0069       3.8962
      5.4168       0.0257       0.2277       0.0070       3.8990
      5.4268       0.0259       0.2381       0.0070       3.9018
      5.4368       0.0260       0.2484       0.0070       3.9046
      5.4468       0.0262       0.2589       0.0070       3.9074
      5.4568       0.0263       0.2694       0.0071       3.9103
      5.4668       0.0265       0.2800       0.0071       3.9131
      5.4768       0.0267       0.2906       0.0071       3.9159
      5.4869       0.0269       0.3013       0.0072       3.9188
      5.4969       0.0271       0.3121       0.0072       3.9217
      5.5069       0.0273       0.3230       0.0072       3.9245
      5.5169       0.0275       0.3339       0.0072       3.9274
      5.5269       0.0277       0.3450       0.0073       3.9303
      5.5369       0.0280       0.3561       0.0073       3.9333
      5.5469       0.0282       0.3674       0.0073       3.9362
      5.5569       0.0285       0.3787       0.0073       3.9391
      5.5670       0.0288       0.3902       0.0074       3.9421
      5.5770       0.0291       0.4018       0.0074       3.9450
      5.5870       0.0294       0.4135       0.0074       3.9480
      5.5970       0.0298       0.4253       0.0075       3.9510
      5.6070       0.0301       0.4373       0.0075       3.9540
      5.6170       0.0305       0.4495       0.0075       3.9570
      5.6270       0.0309       0.4617       0.0075       3.9600
      5.6370       0.0313       0.4742       0.0076       3.9630
      5.6471       0.0318       0.4868       0.0076       3.9660
      5.6571       0.0322       0.4996       0.0076       3.9691
      5.6671       0.0327       0.5126       0.0077       3.9722
      5.6771       0.0332       0.5258       0.0077       3.9752
      5.6871       0.0338       0.5391       0.0077       3.9783
      5.6971       0.0344       0.5528       0.0077       3.9814
      5.7071       0.0350       0.5666       0.0078       3.9845
      5.7171       0.0356       0.5807       0.0078       3.9876
      5.7272       0.0363       0.5951       0.0078       3.9908
      5.7372       0.0371       0.6098       0.0079       3.9939
      5.7472       0.0379       0.6248       0.0079       3.9971
      5.7572       0.0387       0.6400       0.0079       4.0002
      5.7672       0.0396       0.6557       0.0080       4.0034
      5.7772       0.0405       0.6717       0.0080       4.0066
      5.7872       0.0415       0.6880       0.0080       4.0098
      5.7972       0.0426       0.7048       0.0081       4.0130
      5.8073       0.0438       0.7221       0.0081       4.0163
      5.8173       0.0450       0.7398       0.0081       4.0195
      5.8273       0.0464       0.7580       0.0081       4.0228
      5.8373       0.0478       0.7768       0.0082       4.0260
      5.8473       0.0494       0.7961       0.0082       4.0293
      5.8573       0.0510       0.8161       0.0082       4.0326
      5.8673       0.0528       0.8368       0.0083       4.0359
      5.8773       0.0548       0.8582       0.0083       4.0393
      5.8874       0.0569       0.8804       0.0083       4.0426
      5.8974       0.0593       0.9035       0.0084       4.0459
      5.9074       0.0618       0.9276       0.0084       4.0493
      5.9174       0.0646       0.9526       0.0084       4.0527
      5.9274       0.0676       0.9789       0.0085       4.0561
      5.9374       0.0710       1.0063       0.0085       4.0595
      5.9474       0.0747       1.0352       0.0085       4.0629
      5.9574       0.0789       1.0656       0.0086       4.0663
      5.9675       0.0835       1.0976       0.0086       4.0697
      5.9775       0.0886       1.1316       0.0086       4.0732
      5.9875       0.0944       1.1676       0.0087       4.0767
      5.9975       0.1010       1.2061       0.0087       4.0801
      6.0075       0.1084       1.2471       0.0087       4.0836
      6.0175       0.1169       1.2913       0.0088       4.0871
      6.0275       0.1267       1.3388       0.0088       4.0907
      6.0375       0.1380       1.3903       0.0088       4.0942
      6.0476       0.1512       1.4464       0.0089       4.0977
      6.0576       0.1666       1.5077       0.0089       4.1013
      6.0676       0.1850       1.5752       0.0090       4.1049
      6.0776       0.2071       1.6501       0.0090       4.1085
      6.0876       0.2339       1.7336       0.0090       4.1121
      6.0976       0.2668       1.8275       0.0091       4.1157
      6.1076       0.3079       1.9339       0.0091       4.1193
      6.1176       0.3600       2.0558       0.0091       4.1230
      6.1277       0.4274       2.1966       0.0092       4.1267
      6.1377       0.5167       2.3610       0.0092       4.1303
      6.1477       0.6378       2.5546       0.0092       4.1340
      6.1577       0.8074       2.7842       0.0093       4.1377
      6.1677       1.0529       3.0564       0.0093       4.1415
      6.1777       1.4223       3.3730       0.0094       4.1452
      6.1877       1.9992       3.7141       0.0094       4.1490
      6.1977       2.9198       3.9861       0.0094       4.1527
      6.2078       4.3281       3.8828       0.0095       4.1565
      6.2178       5.9990       2.7416       0.0095       4.1603
      6.2278       6.6711       0.3216       0.0095       4.1641
      6.2378       5.5314      -1.8032       0.0096       4.1679
      6.2478       3.8599      -2.5571       0.0096       4.1718
      6.2578       2.6037      -2.4951       0.0097       4.1757
      6.2678       1.8029      -2.1831       0.0097       4.1795
      6.2778       1.2999      -1.8430       0.0097       4.1834
      6.2879       0.9748      -1.5373       0.0098       4.1873
      6.2979       0.7564      -1.2761       0.0098       4.1913
      6.3079       0.6042      -1.0555       0.0099       4.1952
      6.3179       0.4947      -0.8685       0.0099       4.1991
      6.3279       0.4136      -0.7086       0.0099       4.2031
      6.3379       0.3521      -0.5705       0.0100       4.2071
     6.34793      0.30450     -0.44975      0.01002      4.21111
     6.35795      0.26698     -0.34316      0.01006      4.21514
     6.36796      0.23697     -0.24811      0.01010      4.21917
     6.37797      0.21264     -0.16254      0.01014      4.22323
     6.38799      0.19270     -0.08483      0.01019      4.22730
     6.39800      0.17620     -0.01368      0.01023      4.23138
     6.40801      0.16244      0.05197      0.01027      4.23549
     6.41802      0.15089      0.11295      0.01031      4.23961
     6.42804      0.14113      0.16999      0.01035      4.24375
     6.43805      0.13286      0.22367      0.01040      4.24790
     6.44806      0.12582      0.27447      0.01044      4.25208
     6.45807      0.11983      0.32282      0.01048      4.25627
     6.46809      0.11472      0.36907      0.01053      4.26047
     6.47810      0.11038      0.41352      0.01057      4.26470
     6.48811      0.10669      0.45645      0.01061      4.26894
     6.49812      0.10358      0.49809      0.01066      4.27320
     6.50814      0.10098      0.53863      0.01070      4.27748
     6.51815      0.09883      0.57827      0.01075      4.28177
     6.52816      0.09709      0.61716      0.01079      4.28609
     6.53817      0.09572      0.65546      0.01084      4.29042
     6.54819      0.09469      0.69331      0.01088      4.29477
     6.55820      0.09397      0.73082      0.01093      4.29913
     6.56821      0.09355      0.76812      0.01098      4.30352
     6.57822      0.09341      0.80532      0.01102      4.30793
     6.58824      0.09353      0.84253      0.01107      4.31235
     6.59825      0.09392      0.87985      0.01111      4.31679
     6.60826      0.09455      0.91737      0.01116      4.32125
     6.61827      0.09544      0.95520      0.01121      4.32573
     6.62829      0.09657      0.99343      0.01126      4.33023
     6.63830      0.09795      1.03216      0.01130      4.33475
     6.64831      0.09959      1.07150      0.01135      4.33928
     6.65832      0.10149      1.11153      0.01140      4.34384
     6.66834      0.10366      1.15237      0.01145      4.34841
     6.67835      0.10611      1.19413      0.01150      4.35301
     6.68836      0.10886      1.23691      0.01155      4.35762
     6.69837      0.11192      1.28084      0.01160      4.36226
     6.70839      0.11532      1.32604      0.01165      4.36691
     6.71840      0.11908      1.37266      0.01170      4.37158
     6.72841      0.12323      1.42083      0.01175      4.37628
     6.73842      0.12780      1.47072      0.01180      4.38099
     6.74844      0.13283      1.52249      0.01185      4.38573
     6.75845      0.13836      1.57634      0.01190      4.39048
     6.76846      0.14444      1.63246      0.01195      4.39525
     6.77847      0.15114      1.69109      0.01200      4.40005
     6.78849      0.15852      1.75247      0.01205      4.40487
     6.79850      0.16666      1.81689      0.01210      4.40970
     6.80851      0.17565      1.88464      0.01216      4.41456
     6.81852      0.18560      1.95610      0.01221      4.41944
     6.82854      0.19664      2.03163      0.01226      4.42434
     6.83855      0.20891      2.11169      0.01232      4.42926
     6.84856      0.22260      2.19677      0.01237      4.43421
     6.85857      0.23792      2.28747      0.01242      4.43917
     6.86859      0.25511      2.38443      0.01248      4.44416
     6.87860      0.27449      2.48842      0.01253      4.44917
     6.88861      0.29641      2.60031      0.01259      4.45420
     6.89862      0.32134      2.72115      0.01264      4.45925
     6.90864      0.34984      2.85213      0.01270      4.46432
     6.91865      0.38259      2.99470      0.01276      4.46942
     6.92866      0.42047      3.15053      0.01281      4.47454
     6.93867      0.46459      3.32166      0.01287      4.47968
     6.94869      0.51637      3.51057      0.01293      4.48485
     6.95870      0.57764      3.72019      0.01298      4.49004
     6.96871      0.65087      3.95423      0.01304      4.49525
     6.97872      0.73929      4.21718      0.01310      4.50048
     6.98874      0.84737      4.51474      0.01316      4.50574
     6.99875      0.98125      4.85398      0.01322      4.51102
     7.00876      1.14971      5.24403      0.01327      4.51632
     7.01877      1.36541      5.69639      0.01333      4.52165
     7.02879      1.64736      6.22598      0.01339      4.52700
     7.03880      2.02461      6.85156      0.01345      4.53238
     7.04881      2.54346      7.59643      0.01351      4.53778
     7.05882      3.28010      8.48676      0.01358      4.54321
     7.06884      4.36408      9.54312      0.01364      4.54865
     7.07885      6.02206     10.75059      0.01370      4.55413
     7.08886      8.64440     11.95702      0.01376      4.55962
     7.09887     12.81026     12.56824      0.01382      4.56515
    7.109        18.78        10.88       0.1389E-1     4.571   
    7.119        24.25        4.322       0.1395E-1     4.576   
    7.129        23.78       -5.273       0.1401E-1     4.582   
    7.139        17.95       -11.14       0.1408E-1     4.587   
     7.14894     12.16792    -12.37910      0.01414      4.59314
     7.15895      8.23367    -11.62778      0.01421      4.59882
     7.16896      5.76426    -10.40265      0.01427      4.60452
     7.17897      4.19753     -9.21128      0.01434      4.61025
     7.18899      3.16790     -8.17720      0.01440      4.61600
     7.19900      2.46485     -7.30773      0.01447      4.62179
     7.20901      1.96737     -6.58033      0.01454      4.62759
     7.21902      1.60427     -5.96917      0.01460      4.63343
     7.22904      1.33198     -5.45143      0.01467      4.63929
     7.23905      1.12304     -5.00890      0.01474      4.64518
     7.24906      0.95946     -4.62712      0.01481      4.65109
     7.25907      0.82919     -4.29495      0.01488      4.65704
     7.26909      0.72389     -4.00358      0.01495      4.66301
     7.27910      0.63771     -3.74620      0.01502      4.66901
     7.28911      0.56633     -3.51743      0.01509      4.67504
     7.29912      0.50634     -3.31301      0.01516      4.68109
     7.30914      0.45512     -3.12900      0.01523      4.68717
     7.31915      0.41118     -2.96216      0.01530      4.69329
     7.32916      0.37341     -2.81025      0.01537      4.69943
     7.33917      0.34076     -2.67140      0.01544      4.70560
     7.34919      0.31235     -2.54404      0.01552      4.71180
     7.35920      0.28748     -2.42678      0.01559      4.71803
     7.36921      0.26560     -2.31846      0.01566      4.72429
     7.37922      0.24626     -2.21805      0.01574      4.73057
     7.38924      0.22910     -2.12475      0.01581      4.73689
     7.39925      0.21377     -2.03782      0.01589      4.74324
     7.40926      0.19995     -1.95656      0.01597      4.74962
     7.41927      0.18748     -1.88031      0.01604      4.75603
     7.42929      0.17626     -1.80859      0.01612      4.76247
     7.43930      0.16617     -1.74099      0.01620      4.76894
     7.44931      0.15711     -1.67715      0.01627      4.77544
     7.45932      0.14898     -1.61675      0.01635      4.78197
     7.46934      0.14172     -1.55957      0.01643      4.78854
     7.47935      0.13513     -1.50542      0.01651      4.79514
     7.48936      0.12891     -1.45393      0.01659      4.80176
     7.49937      0.12311     -1.40457      0.01667      4.80842
     7.50939      0.11792     -1.35710      0.01675      4.81512
     7.51940      0.11340     -1.31143      0.01684      4.82184
     7.52941      0.10954     -1.26739      0.01692      4.82860
     7.53942      0.10635     -1.22479      0.01700      4.83539
     7.54944      0.10391     -1.18341      0.01708      4.84222
     7.55945      0.10235     -1.14302      0.01717      4.84908
     7.56946      0.10190     -1.10334      0.01725      4.85597
     7.57947      0.10299     -1.06409      0.01734      4.86290
     7.58949      0.10632     -1.02501      0.01742      4.86986
     7.59950      0.11312     -0.98592      0.01751      4.87685
     7.60951      0.12559     -0.94724      0.01760      4.88388
     7.61952      0.14735     -0.91117      0.01769      4.89095
     7.62954      0.18255     -0.88538      0.01777      4.89805
     7.63955      0.22673     -0.88745      0.01786      4.90518
     7.64956      0.24732     -0.92718      0.01795      4.91235
     7.65957      0.21716     -0.96449      0.01804      4.91956
     7.66959      0.16859     -0.96489      0.01813      4.92681
     7.67960      0.13063     -0.94165      0.01822      4.93409
     7.68961      0.10570     -0.91128      0.01832      4.94140
     7.69962      0.08947     -0.88054      0.01841      4.94876
     7.70964      0.07848     -0.85135      0.01850      4.95615
     7.71965      0.07066     -0.82404      0.01860      4.96357
     7.72966      0.06483     -0.79846      0.01869      4.97104
     7.73967      0.06029     -0.77442      0.01879      4.97854
     7.74969      0.05663     -0.75169      0.01888      4.98609
     7.75970      0.05359     -0.73011      0.01898      4.99367
     7.76971      0.05100     -0.70952      0.01908      5.00129
     7.77972      0.04875     -0.68981      0.01917      5.00895
     7.78974      0.04677     -0.67089      0.01927      5.01664
     7.79975      0.04500     -0.65268      0.01937      5.02438
     7.80976      0.04339     -0.63511      0.01947      5.03216
     7.81978      0.04192     -0.61814      0.01957      5.03998
     7.82979      0.04057     -0.60172      0.01968      5.04784
     7.83980      0.03932     -0.58580      0.01978      5.05574
     7.84981      0.03816     -0.57035      0.01988      5.06368
     7.85983      0.03707     -0.55535      0.01999      5.07166
     7.86984      0.03604     -0.54076      0.02009      5.07969
     7.87985      0.03508     -0.52657      0.02020      5.08775
     7.88986      0.03416     -0.51275      0.02030      5.09586
     7.89988      0.03330     -0.49928      0.02041      5.10401
     7.90989      0.03247     -0.48614      0.02052      5.11221
     7.91990      0.03169     -0.47333      0.02063      5.12045
     7.92991      0.03094     -0.46081      0.02074      5.12873
     7.93993      0.03023     -0.44859      0.02085      5.13706
     7.94994      0.02955     -0.43665      0.02096      5.14542
     7.95995      0.02889     -0.42497      0.02107      5.15384
     7.96996      0.02827     -0.41355      0.02118      5.16230
     7.97997      0.02766     -0.40237      0.02130      5.17081
     7.98999      0.02708     -0.39142      0.02141      5.17936
     8.00000      0.02653     -0.38071      0.02153      5.18795
# 
# 01/03/2018 at 12:28 YAMBO @ anomaly [start]
# 01/03/2018 at 12:28                 [end]
#
# .-Input file : yambo.in
# | optics                         # [R OPT] Optics
# | bse                            # [R BSE] Bethe Salpeter Equation.
# | bsk                            # [R BSK] Bethe Salpeter Equation kernel
# | bss                            # [R BSS] Bethe Salpeter Equation solver
# | BoseTemp= 0.000000     eV      # Bosonic Temperature
# | FFTGvecs=  3473        RL      # [FFT] Plane-waves
# | X_Threads= 1                   # [OPENMP/X] Number of threads for response functions
# | DIP_Threads= 1                 # [OPENMP/X] Number of threads for dipoles
# | K_Threads= 1                   # [OPENMP/BSK] Number of threads for response functions
# | BSEmod= "retarded"             # [BSE] resonant/retarded/coupling
# | BSKmod= "HF"                   # [BSE] IP/Hartree/HF/ALDA/SEX/BSfxc
# | BSSmod= "d"                    # [BSS] (h)aydock/(d)iagonalization/(i)nversion/(t)ddft`
# | BSENGexx=  51          RL      # [BSK] Exchange components
# | BSENGBlk=  51          RL      # [BSK] Screened interaction block size
# | % KfnQP_E
# |  6.500000 | 1.000000 | 1.000000 |        # [EXTQP BSK BSS] E parameters  (c/v) eV|adim|adim
# | %
# | % BEnRange
# |  0.000000 | 8.000000 | eV      # [BSS] Energy range
# | %
# | % BDmRange
# |   0.02500 |  0.02500 | eV      # [BSS] Damping range
# | %
# | BEnSteps=  800                 # [BSS] Energy steps
# | % BLongDir
# | 0.5774E-5 |0.5774E-5 |0.5774E-5 |        # [BSS] [cc] Electric Field
# | %
# | % BSEBands
# |   7 | 10 |                     # [BSK] Bands range
# | %
