#                                                           
#   __   __     _        __  __       ____      U  ___  u   
#   \ \ / / U  /"\  U u |" \/ "| u U | __") u    \/"_ \/    
#    \ V /   \/ _ \/   \| |\/| |/   \|  _ \/     | | | |    
#   U_|"|_u  / ___ \    | |  | |     | |_) | .-,_| |_| |    
#     |_|   /_/   \_\   |_|  |_|     |____/   \_)-\___/     
# .-,//|(_   \\    >>  <<,-,,-.     _|| \\_        \\       
#  \_) (__) (__)  (__)  (./  \.)   (__) (__)      (__)      
#                                                           
#                                                           
#        Version 4.3.0 Revision 15746 Hash 61e4334          
#                      MPI+SLK Build                        
#                http://www.yambo-code.org                  
#
# EELS @ Q(1)  [q->0 direction]:0.1000E-4  0.000     0.000   
#
#
# - Energies      are Teter 93(XC)
# - Wavefunctions are Teter 93(XC)
#
# - The Green`s function is Retarded -
# - Using the Length Gauge -
# - [r,Vnl] *is* included -
#
#   BSK|Identifier              :3413
#      |Dimension               :9
#      |Bands                   :1 - 10
#      |Exchange           [res]: yes
#      |Correlation        [res]: no
#      |Kernel`s coupling       : yes
#      |Exchange           [cpl]: yes
#      |Correlation        [cpl]: no
#      |W interaction is bare   : no
#      |ALDA kernel in R-space  : yes
#      |RL vectors    [exchange]:4945
#      |E/h energy range    [ev]:-1.000000 - -1.000000
#      |Coupling range     [o/o]: 100.0000 -  100.0000
#
#    E/ev[1]      EEL-Im[2]    EEL-Re[3]    EELo-Im[4]   EELo-Re[5]
#
    0.000       0.2144E-8    -.9861       -0.000       -.9850   
   0.2002E-1    0.2853E-6    -.9861       0.3277E-6    -.9850   
   0.4004E-1    0.5685E-6    -.9861       0.6554E-6    -.9850   
   0.6006E-1    0.8516E-6    -.9861       0.9832E-6    -.9850   
   0.8008E-1    0.1135E-5    -.9861       0.1311E-5    -.9850   
   0.1001       0.1418E-5    -.9861       0.1639E-5    -.9850   
   0.1201       0.1701E-5    -.9861       0.1967E-5    -.9850   
   0.1401       0.1985E-5    -.9861       0.2294E-5    -.9850   
   0.1602       0.2268E-5    -.9861       0.2622E-5    -.9850   
   0.1802       0.2551E-5    -.9861       0.2950E-5    -.9850   
   0.2002       0.2835E-5    -.9861       0.3279E-5    -.9850   
   0.2202       0.3118E-5    -.9861       0.3607E-5    -.9850   
   0.2402       0.3402E-5    -.9861       0.3935E-5    -.9850   
   0.2603       0.3686E-5    -.9861       0.4263E-5    -.9850   
   0.2803       0.3970E-5    -.9861       0.4592E-5    -.9850   
   0.3003       0.4253E-5    -.9861       0.4921E-5    -.9850   
   0.3203       0.4537E-5    -.9861       0.5249E-5    -.9850   
   0.3403       0.4822E-5    -.9861       0.5578E-5    -.9850   
   0.3604       0.5106E-5    -.9861       0.5907E-5    -.9850   
   0.3804       0.5390E-5    -.9861       0.6237E-5    -.9850   
   0.4004       0.5675E-5    -.9861       0.6566E-5    -.9850   
   0.4204       0.5959E-5    -.9861       0.6896E-5    -.9850   
   0.4404       0.6244E-5    -.9861       0.7225E-5    -.9850   
   0.4605       0.6529E-5    -.9861       0.7555E-5    -.9850   
   0.4805       0.6814E-5    -.9861       0.7885E-5    -.9850   
   0.5005       0.7100E-5    -.9861       0.8216E-5    -.9850   
   0.5205       0.7385E-5    -.9861       0.8546E-5    -.9850   
   0.5405       0.7671E-5    -.9861       0.8877E-5    -.9850   
   0.5606       0.7956E-5    -.9861       0.9208E-5    -.9850   
   0.5806       0.8243E-5    -.9861       0.9539E-5    -.9850   
   0.6006       0.8529E-5    -.9861       0.9871E-5    -.9850   
   0.6206       0.8815E-5    -.9861       0.1020E-4    -.9850   
   0.6406       0.9102E-5    -.9861       0.1053E-4    -.9850   
   0.6607       0.9389E-5    -.9861       0.1087E-4    -.9850   
   0.6807       0.9676E-5    -.9861       0.1120E-4    -.9850   
   0.7007       0.9963E-5    -.9861       0.1153E-4    -.9850   
   0.7207       0.1025E-4    -.9861       0.1187E-4    -.9850   
   0.7407       0.1054E-4    -.9861       0.1220E-4    -.9850   
   0.7608       0.1083E-4    -.9861       0.1253E-4    -.9850   
   0.7808       0.1112E-4    -.9861       0.1287E-4    -.9850   
   0.8008       0.1140E-4    -.9861       0.1320E-4    -.9850   
   0.8208       0.1169E-4    -.9861       0.1354E-4    -.9850   
   0.8408       0.1198E-4    -.9861       0.1387E-4    -.9850   
   0.8609       0.1227E-4    -.9861       0.1421E-4    -.9850   
   0.8809       0.1256E-4    -.9861       0.1454E-4    -.9850   
   0.9009       0.1285E-4    -.9861       0.1488E-4    -.9850   
   0.9209       0.1314E-4    -.9861       0.1522E-4    -.9850   
   0.9409       0.1343E-4    -.9861       0.1556E-4    -.9850   
   0.9610       0.1373E-4    -.9861       0.1589E-4    -.9849   
   0.9810       0.1402E-4    -.9860       0.1623E-4    -.9849   
    1.001       0.1431E-4    -.9860       0.1657E-4    -.9849   
    1.021       0.1460E-4    -.9860       0.1691E-4    -.9849   
    1.041       0.1489E-4    -.9860       0.1725E-4    -.9849   
    1.061       0.1519E-4    -.9860       0.1759E-4    -.9849   
    1.081       0.1548E-4    -.9860       0.1793E-4    -.9849   
    1.101       0.1577E-4    -.9860       0.1827E-4    -.9849   
    1.121       0.1607E-4    -.9860       0.1861E-4    -.9849   
    1.141       0.1636E-4    -.9860       0.1895E-4    -.9849   
    1.161       0.1666E-4    -.9860       0.1930E-4    -.9849   
    1.181       0.1695E-4    -.9860       0.1964E-4    -.9849   
    1.201       0.1725E-4    -.9860       0.1998E-4    -.9849   
    1.221       0.1755E-4    -.9860       0.2033E-4    -.9849   
    1.241       0.1784E-4    -.9860       0.2067E-4    -.9849   
    1.261       0.1814E-4    -.9860       0.2102E-4    -.9849   
    1.281       0.1844E-4    -.9860       0.2136E-4    -.9849   
    1.301       0.1874E-4    -.9860       0.2171E-4    -.9849   
    1.321       0.1904E-4    -.9860       0.2206E-4    -.9849   
    1.341       0.1933E-4    -.9860       0.2240E-4    -.9849   
    1.361       0.1963E-4    -.9860       0.2275E-4    -.9849   
    1.381       0.1993E-4    -.9860       0.2310E-4    -.9849   
    1.401       0.2024E-4    -.9860       0.2345E-4    -.9849   
    1.421       0.2054E-4    -.9860       0.2380E-4    -.9849   
    1.441       0.2084E-4    -.9860       0.2415E-4    -.9849   
    1.461       0.2114E-4    -.9860       0.2450E-4    -.9848   
    1.481       0.2144E-4    -.9860       0.2485E-4    -.9848   
    1.502       0.2175E-4    -.9860       0.2521E-4    -.9848   
    1.522       0.2205E-4    -.9860       0.2556E-4    -.9848   
    1.542       0.2236E-4    -.9859       0.2591E-4    -.9848   
    1.562       0.2266E-4    -.9859       0.2627E-4    -.9848   
    1.582       0.2297E-4    -.9859       0.2663E-4    -.9848   
    1.602       0.2327E-4    -.9859       0.2698E-4    -.9848   
    1.622       0.2358E-4    -.9859       0.2734E-4    -.9848   
    1.642       0.2389E-4    -.9859       0.2770E-4    -.9848   
    1.662       0.2420E-4    -.9859       0.2806E-4    -.9848   
    1.682       0.2450E-4    -.9859       0.2841E-4    -.9848   
    1.702       0.2481E-4    -.9859       0.2878E-4    -.9848   
    1.722       0.2512E-4    -.9859       0.2914E-4    -.9848   
    1.742       0.2544E-4    -.9859       0.2950E-4    -.9848   
    1.762       0.2575E-4    -.9859       0.2986E-4    -.9848   
    1.782       0.2606E-4    -.9859       0.3022E-4    -.9848   
    1.802       0.2637E-4    -.9859       0.3059E-4    -.9848   
    1.822       0.2669E-4    -.9859       0.3095E-4    -.9847   
    1.842       0.2700E-4    -.9859       0.3132E-4    -.9847   
    1.862       0.2731E-4    -.9859       0.3169E-4    -.9847   
    1.882       0.2763E-4    -.9859       0.3206E-4    -.9847   
    1.902       0.2795E-4    -.9859       0.3242E-4    -.9847   
    1.922       0.2826E-4    -.9858       0.3279E-4    -.9847   
    1.942       0.2858E-4    -.9858       0.3317E-4    -.9847   
    1.962       0.2890E-4    -.9858       0.3354E-4    -.9847   
    1.982       0.2922E-4    -.9858       0.3391E-4    -.9847   
    2.002       0.2954E-4    -.9858       0.3428E-4    -.9847   
    2.022       0.2986E-4    -.9858       0.3466E-4    -.9847   
    2.042       0.3018E-4    -.9858       0.3503E-4    -.9847   
    2.062       0.3051E-4    -.9858       0.3541E-4    -.9847   
    2.082       0.3083E-4    -.9858       0.3579E-4    -.9847   
    2.102       0.3115E-4    -.9858       0.3617E-4    -.9847   
    2.122       0.3148E-4    -.9858       0.3655E-4    -.9846   
    2.142       0.3180E-4    -.9858       0.3693E-4    -.9846   
    2.162       0.3213E-4    -.9858       0.3731E-4    -.9846   
    2.182       0.3246E-4    -.9858       0.3769E-4    -.9846   
    2.202       0.3279E-4    -.9858       0.3808E-4    -.9846   
    2.222       0.3312E-4    -.9858       0.3846E-4    -.9846   
    2.242       0.3345E-4    -.9858       0.3885E-4    -.9846   
    2.262       0.3378E-4    -.9857       0.3923E-4    -.9846   
    2.282       0.3411E-4    -.9857       0.3962E-4    -.9846   
    2.302       0.3444E-4    -.9857       0.4001E-4    -.9846   
    2.322       0.3478E-4    -.9857       0.4040E-4    -.9846   
    2.342       0.3511E-4    -.9857       0.4080E-4    -.9846   
    2.362       0.3545E-4    -.9857       0.4119E-4    -.9846   
    2.382       0.3579E-4    -.9857       0.4158E-4    -.9845   
    2.402       0.3612E-4    -.9857       0.4198E-4    -.9845   
    2.422       0.3646E-4    -.9857       0.4238E-4    -.9845   
    2.442       0.3680E-4    -.9857       0.4277E-4    -.9845   
    2.462       0.3714E-4    -.9857       0.4317E-4    -.9845   
    2.482       0.3749E-4    -.9857       0.4357E-4    -.9845   
    2.503       0.3783E-4    -.9857       0.4398E-4    -.9845   
    2.523       0.3817E-4    -.9857       0.4438E-4    -.9845   
    2.543       0.3852E-4    -.9856       0.4478E-4    -.9845   
    2.563       0.3886E-4    -.9856       0.4519E-4    -.9845   
    2.583       0.3921E-4    -.9856       0.4560E-4    -.9845   
    2.603       0.3956E-4    -.9856       0.4601E-4    -.9844   
    2.623       0.3991E-4    -.9856       0.4642E-4    -.9844   
    2.643       0.4026E-4    -.9856       0.4683E-4    -.9844   
    2.663       0.4061E-4    -.9856       0.4724E-4    -.9844   
    2.683       0.4096E-4    -.9856       0.4765E-4    -.9844   
    2.703       0.4132E-4    -.9856       0.4807E-4    -.9844   
    2.723       0.4167E-4    -.9856       0.4849E-4    -.9844   
    2.743       0.4203E-4    -.9856       0.4891E-4    -.9844   
    2.763       0.4239E-4    -.9856       0.4933E-4    -.9844   
    2.783       0.4275E-4    -.9855       0.4975E-4    -.9844   
    2.803       0.4311E-4    -.9855       0.5017E-4    -.9844   
    2.823       0.4347E-4    -.9855       0.5060E-4    -.9843   
    2.843       0.4383E-4    -.9855       0.5102E-4    -.9843   
    2.863       0.4419E-4    -.9855       0.5145E-4    -.9843   
    2.883       0.4456E-4    -.9855       0.5188E-4    -.9843   
    2.903       0.4493E-4    -.9855       0.5231E-4    -.9843   
    2.923       0.4529E-4    -.9855       0.5274E-4    -.9843   
    2.943       0.4566E-4    -.9855       0.5318E-4    -.9843   
    2.963       0.4603E-4    -.9855       0.5361E-4    -.9843   
    2.983       0.4640E-4    -.9855       0.5405E-4    -.9843   
    3.003       0.4678E-4    -.9854       0.5449E-4    -.9842   
    3.023       0.4715E-4    -.9854       0.5493E-4    -.9842   
    3.043       0.4753E-4    -.9854       0.5538E-4    -.9842   
    3.063       0.4790E-4    -.9854       0.5582E-4    -.9842   
    3.083       0.4828E-4    -.9854       0.5627E-4    -.9842   
    3.103       0.4866E-4    -.9854       0.5671E-4    -.9842   
    3.123       0.4904E-4    -.9854       0.5716E-4    -.9842   
    3.143       0.4943E-4    -.9854       0.5762E-4    -.9842   
    3.163       0.4981E-4    -.9854       0.5807E-4    -.9842   
    3.183       0.5020E-4    -.9854       0.5852E-4    -.9841   
    3.203       0.5058E-4    -.9853       0.5898E-4    -.9841   
    3.223       0.5097E-4    -.9853       0.5944E-4    -.9841   
    3.243       0.5136E-4    -.9853       0.5990E-4    -.9841   
    3.263       0.5175E-4    -.9853       0.6036E-4    -.9841   
    3.283       0.5215E-4    -.9853       0.6083E-4    -.9841   
    3.303       0.5254E-4    -.9853       0.6130E-4    -.9841   
    3.323       0.5294E-4    -.9853       0.6176E-4    -.9841   
    3.343       0.5334E-4    -.9853       0.6224E-4    -.9841   
    3.363       0.5374E-4    -.9853       0.6271E-4    -.9840   
    3.383       0.5414E-4    -.9853       0.6318E-4    -.9840   
    3.403       0.5454E-4    -.9852       0.6366E-4    -.9840   
    3.423       0.5494E-4    -.9852       0.6414E-4    -.9840   
    3.443       0.5535E-4    -.9852       0.6462E-4    -.9840   
    3.463       0.5576E-4    -.9852       0.6510E-4    -.9840   
    3.483       0.5617E-4    -.9852       0.6559E-4    -.9840   
    3.504       0.5658E-4    -.9852       0.6608E-4    -.9839   
    3.524       0.5699E-4    -.9852       0.6657E-4    -.9839   
    3.544       0.5741E-4    -.9852       0.6706E-4    -.9839   
    3.564       0.5782E-4    -.9852       0.6755E-4    -.9839   
    3.584       0.5824E-4    -.9851       0.6805E-4    -.9839   
    3.604       0.5866E-4    -.9851       0.6855E-4    -.9839   
    3.624       0.5908E-4    -.9851       0.6905E-4    -.9839   
    3.644       0.5951E-4    -.9851       0.6955E-4    -.9839   
    3.664       0.5993E-4    -.9851       0.7006E-4    -.9838   
    3.684       0.6036E-4    -.9851       0.7056E-4    -.9838   
    3.704       0.6079E-4    -.9851       0.7108E-4    -.9838   
    3.724       0.6122E-4    -.9851       0.7159E-4    -.9838   
    3.744       0.6165E-4    -.9850       0.7210E-4    -.9838   
    3.764       0.6209E-4    -.9850       0.7262E-4    -.9838   
    3.784       0.6253E-4    -.9850       0.7314E-4    -.9838   
    3.804       0.6297E-4    -.9850       0.7366E-4    -.9837   
    3.824       0.6341E-4    -.9850       0.7419E-4    -.9837   
    3.844       0.6385E-4    -.9850       0.7472E-4    -.9837   
    3.864       0.6430E-4    -.9850       0.7525E-4    -.9837   
    3.884       0.6474E-4    -.9850       0.7578E-4    -.9837   
    3.904       0.6519E-4    -.9849       0.7632E-4    -.9837   
    3.924       0.6564E-4    -.9849       0.7685E-4    -.9836   
    3.944       0.6610E-4    -.9849       0.7740E-4    -.9836   
    3.964       0.6655E-4    -.9849       0.7794E-4    -.9836   
    3.984       0.6701E-4    -.9849       0.7849E-4    -.9836   
    4.004       0.6747E-4    -.9849       0.7903E-4    -.9836   
    4.024       0.6793E-4    -.9849       0.7959E-4    -.9836   
    4.044       0.6840E-4    -.9849       0.8014E-4    -.9836   
    4.064       0.6887E-4    -.9848       0.8070E-4    -.9835   
    4.084       0.6933E-4    -.9848       0.8126E-4    -.9835   
    4.104       0.6981E-4    -.9848       0.8182E-4    -.9835   
    4.124       0.7028E-4    -.9848       0.8239E-4    -.9835   
    4.144       0.7076E-4    -.9848       0.8296E-4    -.9835   
    4.164       0.7123E-4    -.9848       0.8353E-4    -.9835   
    4.184       0.7171E-4    -.9848       0.8411E-4    -.9834   
    4.204       0.7220E-4    -.9847       0.8469E-4    -.9834   
    4.224       0.7268E-4    -.9847       0.8527E-4    -.9834   
    4.244       0.7317E-4    -.9847       0.8585E-4    -.9834   
    4.264       0.7366E-4    -.9847       0.8644E-4    -.9834   
    4.284       0.7415E-4    -.9847       0.8703E-4    -.9834   
    4.304       0.7465E-4    -.9847       0.8762E-4    -.9833   
    4.324       0.7515E-4    -.9847       0.8822E-4    -.9833   
    4.344       0.7565E-4    -.9846       0.8882E-4    -.9833   
    4.364       0.7615E-4    -.9846       0.8943E-4    -.9833   
    4.384       0.7666E-4    -.9846       0.9003E-4    -.9833   
    4.404       0.7717E-4    -.9846       0.9065E-4    -.9832   
    4.424       0.7768E-4    -.9846       0.9126E-4    -.9832   
    4.444       0.7819E-4    -.9846       0.9188E-4    -.9832   
    4.464       0.7871E-4    -.9845       0.9250E-4    -.9832   
    4.484       0.7923E-4    -.9845       0.9312E-4    -.9832   
    4.505       0.7975E-4    -.9845       0.9375E-4    -.9832   
    4.525       0.8028E-4    -.9845       0.9438E-4    -.9831   
    4.545       0.8080E-4    -.9845       0.9502E-4    -.9831   
    4.565       0.8133E-4    -.9845       0.9566E-4    -.9831   
    4.585       0.8187E-4    -.9844       0.9630E-4    -.9831   
    4.605       0.8240E-4    -.9844       0.9695E-4    -.9831   
    4.625       0.8294E-4    -.9844       0.9760E-4    -.9830   
    4.645       0.8349E-4    -.9844       0.9825E-4    -.9830   
    4.665       0.8403E-4    -.9844       0.9891E-4    -.9830   
    4.685       0.8458E-4    -.9844       0.9957E-4    -.9830   
    4.705       0.8513E-4    -.9843       0.1002E-3    -.9830   
    4.725       0.8569E-4    -.9843       0.1009E-3    -.9829   
    4.745       0.8624E-4    -.9843       0.1016E-3    -.9829   
    4.765       0.8680E-4    -.9843       0.1023E-3    -.9829   
    4.785       0.8737E-4    -.9843       0.1029E-3    -.9829   
    4.805       0.8794E-4    -.9843       0.1036E-3    -.9829   
    4.825       0.8851E-4    -.9842       0.1043E-3    -.9828   
    4.845       0.8908E-4    -.9842       0.1050E-3    -.9828   
    4.865       0.8966E-4    -.9842       0.1057E-3    -.9828   
    4.885       0.9024E-4    -.9842       0.1064E-3    -.9828   
    4.905       0.9082E-4    -.9842       0.1071E-3    -.9828   
    4.925       0.9141E-4    -.9842       0.1078E-3    -.9827   
    4.945       0.9200E-4    -.9841       0.1085E-3    -.9827   
    4.965       0.9259E-4    -.9841       0.1093E-3    -.9827   
    4.985       0.9319E-4    -.9841       0.1100E-3    -.9827   
    5.005       0.9379E-4    -.9841       0.1107E-3    -.9826   
    5.025       0.9440E-4    -.9841       0.1115E-3    -.9826   
    5.045       0.9501E-4    -.9840       0.1122E-3    -.9826   
    5.065       0.9562E-4    -.9840       0.1129E-3    -.9826   
    5.085       0.9623E-4    -.9840       0.1137E-3    -.9826   
    5.105       0.9685E-4    -.9840       0.1144E-3    -.9825   
    5.125       0.9748E-4    -.9840       0.1152E-3    -.9825   
    5.145       0.9810E-4    -.9839       0.1160E-3    -.9825   
    5.165       0.9874E-4    -.9839       0.1167E-3    -.9825   
    5.185       0.9937E-4    -.9839       0.1175E-3    -.9824   
    5.205       0.1000E-3    -.9839       0.1183E-3    -.9824   
    5.225       0.1007E-3    -.9839       0.1191E-3    -.9824   
    5.245       0.1013E-3    -.9838       0.1199E-3    -.9824   
    5.265       0.1020E-3    -.9838       0.1206E-3    -.9823   
    5.285       0.1026E-3    -.9838       0.1214E-3    -.9823   
    5.305       0.1033E-3    -.9838       0.1222E-3    -.9823   
    5.325       0.1039E-3    -.9838       0.1231E-3    -.9823   
    5.345       0.1046E-3    -.9837       0.1239E-3    -.9822   
    5.365       0.1053E-3    -.9837       0.1247E-3    -.9822   
    5.385       0.1059E-3    -.9837       0.1255E-3    -.9822   
    5.405       0.1066E-3    -.9837       0.1264E-3    -.9822   
    5.425       0.1073E-3    -.9837       0.1272E-3    -.9821   
    5.445       0.1080E-3    -.9836       0.1280E-3    -.9821   
    5.465       0.1087E-3    -.9836       0.1289E-3    -.9821   
    5.485       0.1094E-3    -.9836       0.1297E-3    -.9821   
    5.506       0.1101E-3    -.9836       0.1306E-3    -.9820   
    5.526       0.1108E-3    -.9835       0.1315E-3    -.9820   
    5.546       0.1115E-3    -.9835       0.1323E-3    -.9820   
    5.566       0.1122E-3    -.9835       0.1332E-3    -.9820   
    5.586       0.1130E-3    -.9835       0.1341E-3    -.9819   
    5.606       0.1137E-3    -.9835       0.1350E-3    -.9819   
    5.626       0.1144E-3    -.9834       0.1359E-3    -.9819   
    5.646       0.1151E-3    -.9834       0.1368E-3    -.9819   
    5.666       0.1159E-3    -.9834       0.1377E-3    -.9818   
    5.686       0.1166E-3    -.9834       0.1386E-3    -.9818   
    5.706       0.1174E-3    -.9833       0.1396E-3    -.9818   
    5.726       0.1181E-3    -.9833       0.1405E-3    -.9817   
    5.746       0.1189E-3    -.9833       0.1414E-3    -.9817   
    5.766       0.1197E-3    -.9833       0.1424E-3    -.9817   
    5.786       0.1204E-3    -.9832       0.1433E-3    -.9817   
    5.806       0.1212E-3    -.9832       0.1443E-3    -.9816   
    5.826       0.1220E-3    -.9832       0.1452E-3    -.9816   
    5.846       0.1228E-3    -.9832       0.1462E-3    -.9816   
    5.866       0.1236E-3    -.9831       0.1472E-3    -.9815   
    5.886       0.1244E-3    -.9831       0.1482E-3    -.9815   
    5.906       0.1252E-3    -.9831       0.1492E-3    -.9815   
    5.926       0.1260E-3    -.9831       0.1502E-3    -.9815   
    5.946       0.1268E-3    -.9830       0.1512E-3    -.9814   
    5.966       0.1276E-3    -.9830       0.1522E-3    -.9814   
    5.986       0.1285E-3    -.9830       0.1532E-3    -.9814   
    6.006       0.1293E-3    -.9830       0.1543E-3    -.9813   
    6.026       0.1301E-3    -.9829       0.1553E-3    -.9813   
    6.046       0.1310E-3    -.9829       0.1564E-3    -.9813   
    6.066       0.1318E-3    -.9829       0.1574E-3    -.9812   
    6.086       0.1327E-3    -.9829       0.1585E-3    -.9812   
    6.106       0.1336E-3    -.9828       0.1596E-3    -.9812   
    6.126       0.1344E-3    -.9828       0.1606E-3    -.9811   
    6.146       0.1353E-3    -.9828       0.1617E-3    -.9811   
    6.166       0.1362E-3    -.9828       0.1628E-3    -.9811   
    6.186       0.1371E-3    -.9827       0.1639E-3    -.9810   
    6.206       0.1380E-3    -.9827       0.1650E-3    -.9810   
    6.226       0.1389E-3    -.9827       0.1662E-3    -.9810   
    6.246       0.1398E-3    -.9826       0.1673E-3    -.9809   
    6.266       0.1407E-3    -.9826       0.1685E-3    -.9809   
    6.286       0.1417E-3    -.9826       0.1696E-3    -.9809   
    6.306       0.1426E-3    -.9826       0.1708E-3    -.9808   
    6.326       0.1435E-3    -.9825       0.1719E-3    -.9808   
    6.346       0.1445E-3    -.9825       0.1731E-3    -.9808   
    6.366       0.1454E-3    -.9825       0.1743E-3    -.9807   
    6.386       0.1464E-3    -.9824       0.1755E-3    -.9807   
    6.406       0.1474E-3    -.9824       0.1767E-3    -.9807   
    6.426       0.1483E-3    -.9824       0.1779E-3    -.9806   
    6.446       0.1493E-3    -.9824       0.1792E-3    -.9806   
    6.466       0.1503E-3    -.9823       0.1804E-3    -.9806   
    6.486       0.1513E-3    -.9823       0.1817E-3    -.9805   
    6.507       0.1523E-3    -.9823       0.1829E-3    -.9805   
    6.527       0.1533E-3    -.9822       0.1842E-3    -.9805   
    6.547       0.1544E-3    -.9822       0.1855E-3    -.9804   
    6.567       0.1554E-3    -.9822       0.1868E-3    -.9804   
    6.587       0.1564E-3    -.9821       0.1881E-3    -.9803   
    6.607       0.1575E-3    -.9821       0.1894E-3    -.9803   
    6.627       0.1585E-3    -.9821       0.1907E-3    -.9803   
    6.647       0.1596E-3    -.9821       0.1921E-3    -.9802   
    6.667       0.1607E-3    -.9820       0.1934E-3    -.9802   
    6.687       0.1618E-3    -.9820       0.1948E-3    -.9801   
    6.707       0.1628E-3    -.9820       0.1962E-3    -.9801   
    6.727       0.1640E-3    -.9819       0.1976E-3    -.9801   
    6.747       0.1651E-3    -.9819       0.1990E-3    -.9800   
    6.767       0.1662E-3    -.9819       0.2004E-3    -.9800   
    6.787       0.1673E-3    -.9818       0.2018E-3    -.9800   
    6.807       0.1684E-3    -.9818       0.2032E-3    -.9799   
    6.827       0.1696E-3    -.9818       0.2047E-3    -.9799   
    6.847       0.1708E-3    -.9817       0.2061E-3    -.9798   
    6.867       0.1719E-3    -.9817       0.2076E-3    -.9798   
    6.887       0.1731E-3    -.9817       0.2091E-3    -.9797   
    6.907       0.1743E-3    -.9816       0.2106E-3    -.9797   
    6.927       0.1755E-3    -.9816       0.2121E-3    -.9797   
    6.947       0.1767E-3    -.9815       0.2137E-3    -.9796   
    6.967       0.1779E-3    -.9815       0.2152E-3    -.9796   
    6.987       0.1791E-3    -.9815       0.2168E-3    -.9795   
    7.007       0.1804E-3    -.9814       0.2183E-3    -.9795   
    7.027       0.1816E-3    -.9814       0.2199E-3    -.9794   
    7.047       0.1829E-3    -.9814       0.2215E-3    -.9794   
    7.067       0.1842E-3    -.9813       0.2231E-3    -.9794   
    7.087       0.1854E-3    -.9813       0.2248E-3    -.9793   
    7.107       0.1867E-3    -.9813       0.2264E-3    -.9793   
    7.127       0.1880E-3    -.9812       0.2281E-3    -.9792   
    7.147       0.1894E-3    -.9812       0.2298E-3    -.9792   
    7.167       0.1907E-3    -.9811       0.2315E-3    -.9791   
    7.187       0.1920E-3    -.9811       0.2332E-3    -.9791   
    7.207       0.1934E-3    -.9811       0.2349E-3    -.9790   
    7.227       0.1948E-3    -.9810       0.2367E-3    -.9790   
    7.247       0.1961E-3    -.9810       0.2384E-3    -.9789   
    7.267       0.1975E-3    -.9809       0.2402E-3    -.9789   
    7.287       0.1989E-3    -.9809       0.2420E-3    -.9788   
    7.307       0.2004E-3    -.9809       0.2438E-3    -.9788   
    7.327       0.2018E-3    -.9808       0.2456E-3    -.9787   
    7.347       0.2032E-3    -.9808       0.2475E-3    -.9787   
    7.367       0.2047E-3    -.9807       0.2494E-3    -.9786   
    7.387       0.2062E-3    -.9807       0.2513E-3    -.9786   
    7.407       0.2076E-3    -.9807       0.2532E-3    -.9785   
    7.427       0.2091E-3    -.9806       0.2551E-3    -.9785   
    7.447       0.2107E-3    -.9806       0.2570E-3    -.9784   
    7.467       0.2122E-3    -.9805       0.2590E-3    -.9784   
    7.487       0.2137E-3    -.9805       0.2610E-3    -.9783   
    7.508       0.2153E-3    -.9805       0.2630E-3    -.9783   
    7.528       0.2168E-3    -.9804       0.2650E-3    -.9782   
    7.548       0.2184E-3    -.9804       0.2671E-3    -.9782   
    7.568       0.2200E-3    -.9803       0.2691E-3    -.9781   
    7.588       0.2217E-3    -.9803       0.2712E-3    -.9781   
    7.608       0.2233E-3    -.9802       0.2733E-3    -.9780   
    7.628       0.2249E-3    -.9802       0.2755E-3    -.9780   
    7.648       0.2266E-3    -.9801       0.2776E-3    -.9779   
    7.668       0.2283E-3    -.9801       0.2798E-3    -.9779   
    7.688       0.2300E-3    -.9801       0.2820E-3    -.9778   
    7.708       0.2317E-3    -.9800       0.2842E-3    -.9777   
    7.728       0.2334E-3    -.9800       0.2865E-3    -.9777   
    7.748       0.2352E-3    -.9799       0.2888E-3    -.9776   
    7.768       0.2370E-3    -.9799       0.2911E-3    -.9776   
    7.788       0.2387E-3    -.9798       0.2934E-3    -.9775   
    7.808       0.2406E-3    -.9798       0.2957E-3    -.9775   
    7.828       0.2424E-3    -.9797       0.2981E-3    -.9774   
    7.848       0.2442E-3    -.9797       0.3005E-3    -.9773   
    7.868       0.2461E-3    -.9796       0.3029E-3    -.9773   
    7.888       0.2480E-3    -.9796       0.3054E-3    -.9772   
    7.908       0.2499E-3    -.9795       0.3079E-3    -.9772   
    7.928       0.2518E-3    -.9795       0.3104E-3    -.9771   
    7.948       0.2537E-3    -.9794       0.3129E-3    -.9770   
    7.968       0.2557E-3    -.9794       0.3155E-3    -.9770   
    7.988       0.2577E-3    -.9793       0.3181E-3    -.9769   
    8.008       0.2597E-3    -.9793       0.3207E-3    -.9768   
    8.028       0.2617E-3    -.9792       0.3234E-3    -.9768   
    8.048       0.2637E-3    -.9792       0.3260E-3    -.9767   
    8.068       0.2658E-3    -.9791       0.3288E-3    -.9766   
    8.088       0.2679E-3    -.9791       0.3315E-3    -.9766   
    8.108       0.2700E-3    -.9790       0.3343E-3    -.9765   
    8.128       0.2721E-3    -.9790       0.3371E-3    -.9764   
    8.148       0.2743E-3    -.9789       0.3399E-3    -.9764   
    8.168       0.2765E-3    -.9788       0.3428E-3    -.9763   
    8.188       0.2787E-3    -.9788       0.3457E-3    -.9762   
    8.208       0.2809E-3    -.9787       0.3487E-3    -.9762   
    8.228       0.2832E-3    -.9787       0.3517E-3    -.9761   
    8.248       0.2855E-3    -.9786       0.3547E-3    -.9760   
    8.268       0.2878E-3    -.9786       0.3577E-3    -.9760   
    8.288       0.2901E-3    -.9785       0.3608E-3    -.9759   
    8.308       0.2925E-3    -.9784       0.3640E-3    -.9758   
    8.328       0.2949E-3    -.9784       0.3671E-3    -.9757   
    8.348       0.2973E-3    -.9783       0.3703E-3    -.9757   
    8.368       0.2997E-3    -.9783       0.3736E-3    -.9756   
    8.388       0.3022E-3    -.9782       0.3769E-3    -.9755   
    8.408       0.3047E-3    -.9781       0.3802E-3    -.9754   
    8.428       0.3072E-3    -.9781       0.3836E-3    -.9754   
    8.448       0.3098E-3    -.9780       0.3870E-3    -.9753   
    8.468       0.3124E-3    -.9780       0.3904E-3    -.9752   
    8.488       0.3150E-3    -.9779       0.3939E-3    -.9751   
    8.509       0.3176E-3    -.9778       0.3975E-3    -.9751   
    8.529       0.3203E-3    -.9778       0.4011E-3    -.9750   
    8.549       0.3230E-3    -.9777       0.4047E-3    -.9749   
    8.569       0.3258E-3    -.9776       0.4084E-3    -.9748   
    8.589       0.3285E-3    -.9776       0.4121E-3    -.9747   
    8.609       0.3314E-3    -.9775       0.4159E-3    -.9746   
    8.629       0.3342E-3    -.9774       0.4197E-3    -.9746   
    8.649       0.3371E-3    -.9774       0.4236E-3    -.9745   
    8.669       0.3400E-3    -.9773       0.4275E-3    -.9744   
    8.689       0.3430E-3    -.9772       0.4315E-3    -.9743   
    8.709       0.3460E-3    -.9772       0.4355E-3    -.9742   
    8.729       0.3490E-3    -.9771       0.4396E-3    -.9741   
    8.749       0.3521E-3    -.9770       0.4438E-3    -.9740   
    8.769       0.3552E-3    -.9770       0.4480E-3    -.9740   
    8.789       0.3583E-3    -.9769       0.4522E-3    -.9739   
    8.809       0.3615E-3    -.9768       0.4565E-3    -.9738   
    8.829       0.3647E-3    -.9767       0.4609E-3    -.9737   
    8.849       0.3680E-3    -.9767       0.4654E-3    -.9736   
    8.869       0.3713E-3    -.9766       0.4699E-3    -.9735   
    8.889       0.3747E-3    -.9765       0.4744E-3    -.9734   
    8.909       0.3781E-3    -.9764       0.4790E-3    -.9733   
    8.929       0.3815E-3    -.9764       0.4837E-3    -.9732   
    8.949       0.3850E-3    -.9763       0.4885E-3    -.9731   
    8.969       0.3885E-3    -.9762       0.4933E-3    -.9730   
    8.989       0.3921E-3    -.9761       0.4982E-3    -.9729   
    9.009       0.3957E-3    -.9761       0.5032E-3    -.9728   
    9.029       0.3994E-3    -.9760       0.5082E-3    -.9727   
    9.049       0.4031E-3    -.9759       0.5133E-3    -.9726   
    9.069       0.4069E-3    -.9758       0.5185E-3    -.9725   
    9.089       0.4107E-3    -.9757       0.5238E-3    -.9724   
    9.109       0.4146E-3    -.9757       0.5291E-3    -.9723   
    9.129       0.4186E-3    -.9756       0.5345E-3    -.9722   
    9.149       0.4226E-3    -.9755       0.5400E-3    -.9721   
    9.169       0.4266E-3    -.9754       0.5456E-3    -.9720   
    9.189       0.4307E-3    -.9753       0.5513E-3    -.9719   
    9.209       0.4349E-3    -.9752       0.5571E-3    -.9718   
    9.229       0.4391E-3    -.9751       0.5629E-3    -.9716   
    9.249       0.4434E-3    -.9751       0.5688E-3    -.9715   
    9.269       0.4477E-3    -.9750       0.5749E-3    -.9714   
    9.289       0.4521E-3    -.9749       0.5810E-3    -.9713   
    9.309       0.4566E-3    -.9748       0.5872E-3    -.9712   
    9.329       0.4612E-3    -.9747       0.5935E-3    -.9711   
    9.349       0.4658E-3    -.9746       0.6000E-3    -.9709   
    9.369       0.4704E-3    -.9745       0.6065E-3    -.9708   
    9.389       0.4752E-3    -.9744       0.6131E-3    -.9707   
    9.409       0.4800E-3    -.9743       0.6198E-3    -.9706   
    9.429       0.4849E-3    -.9742       0.6267E-3    -.9705   
    9.449       0.4898E-3    -.9741       0.6336E-3    -.9703   
    9.469       0.4949E-3    -.9740       0.6407E-3    -.9702   
    9.489       0.5000E-3    -.9739       0.6479E-3    -.9701   
    9.510       0.5052E-3    -.9738       0.6552E-3    -.9699   
    9.530       0.5104E-3    -.9737       0.6626E-3    -.9698   
    9.550       0.5158E-3    -.9736       0.6702E-3    -.9697   
    9.570       0.5212E-3    -.9735       0.6778E-3    -.9695   
    9.590       0.5268E-3    -.9734       0.6857E-3    -.9694   
    9.610       0.5324E-3    -.9733       0.6936E-3    -.9693   
    9.630       0.5381E-3    -.9732       0.7017E-3    -.9691   
    9.650       0.5439E-3    -.9731       0.7099E-3    -.9690   
    9.670       0.5497E-3    -.9730       0.7183E-3    -.9688   
    9.690       0.5557E-3    -.9729       0.7268E-3    -.9687   
    9.710       0.5618E-3    -.9728       0.7355E-3    -.9686   
    9.730       0.5680E-3    -.9726       0.7443E-3    -.9684   
    9.750       0.5743E-3    -.9725       0.7533E-3    -.9683   
    9.770       0.5807E-3    -.9724       0.7624E-3    -.9681   
    9.790       0.5871E-3    -.9723       0.7717E-3    -.9680   
    9.810       0.5937E-3    -.9722       0.7812E-3    -.9678   
    9.830       0.6005E-3    -.9721       0.7908E-3    -.9676   
    9.850       0.6073E-3    -.9719       0.8007E-3    -.9675   
    9.870       0.6142E-3    -.9718       0.8107E-3    -.9673   
    9.890       0.6213E-3    -.9717       0.8209E-3    -.9672   
    9.910       0.6285E-3    -.9716       0.8313E-3    -.9670   
    9.930       0.6358E-3    -.9714       0.8419E-3    -.9668   
    9.950       0.6433E-3    -.9713       0.8527E-3    -.9667   
    9.970       0.6508E-3    -.9712       0.8637E-3    -.9665   
    9.990       0.6586E-3    -.9711       0.8749E-3    -.9663   
    10.01       0.6664E-3    -.9709       0.8864E-3    -.9661   
    10.03       0.6744E-3    -.9708       0.8981E-3    -.9660   
    10.05       0.6826E-3    -.9707       0.9100E-3    -.9658   
    10.07       0.6908E-3    -.9705       0.9221E-3    -.9656   
    10.09       0.6993E-3    -.9704       0.9345E-3    -.9654   
    10.11       0.7079E-3    -.9702       0.9471E-3    -.9652   
    10.13       0.7167E-3    -.9701       0.9600E-3    -.9650   
    10.15       0.7256E-3    -.9700       0.9732E-3    -.9648   
    10.17       0.7347E-3    -.9698       0.9866E-3    -.9646   
    10.19       0.7440E-3    -.9697       0.1000E-2    -.9644   
    10.21       0.7534E-3    -.9695       0.1014E-2    -.9642   
    10.23       0.7631E-3    -.9694       0.1029E-2    -.9640   
    10.25       0.7729E-3    -.9692       0.1043E-2    -.9638   
    10.27       0.7829E-3    -.9690       0.1058E-2    -.9636   
    10.29       0.7931E-3    -.9689       0.1073E-2    -.9634   
    10.31       0.8036E-3    -.9687       0.1089E-2    -.9632   
    10.33       0.8142E-3    -.9686       0.1105E-2    -.9630   
    10.35       0.8251E-3    -.9684       0.1121E-2    -.9628   
    10.37       0.8361E-3    -.9682       0.1138E-2    -.9625   
    10.39       0.8475E-3    -.9681       0.1155E-2    -.9623   
    10.41       0.8590E-3    -.9679       0.1172E-2    -.9621   
    10.43       0.8708E-3    -.9677       0.1190E-2    -.9618   
    10.45       0.8828E-3    -.9676       0.1208E-2    -.9616   
    10.47       0.8951E-3    -.9674       0.1227E-2    -.9613   
    10.49       0.9077E-3    -.9672       0.1246E-2    -.9611   
    10.51       0.9205E-3    -.9670       0.1266E-2    -.9608   
    10.53       0.9336E-3    -.9668       0.1286E-2    -.9606   
    10.55       0.9470E-3    -.9666       0.1306E-2    -.9603   
    10.57       0.9607E-3    -.9665       0.1327E-2    -.9601   
    10.59       0.9747E-3    -.9663       0.1349E-2    -.9598   
    10.61       0.9890E-3    -.9661       0.1371E-2    -.9595   
    10.63       0.1004E-2    -.9659       0.1394E-2    -.9593   
    10.65       0.1019E-2    -.9657       0.1417E-2    -.9590   
    10.67       0.1034E-2    -.9655       0.1441E-2    -.9587   
    10.69       0.1050E-2    -.9652       0.1465E-2    -.9584   
    10.71       0.1066E-2    -.9650       0.1490E-2    -.9581   
    10.73       0.1082E-2    -.9648       0.1516E-2    -.9578   
    10.75       0.1099E-2    -.9646       0.1542E-2    -.9575   
    10.77       0.1116E-2    -.9644       0.1569E-2    -.9572   
    10.79       0.1134E-2    -.9642       0.1597E-2    -.9569   
    10.81       0.1152E-2    -.9639       0.1626E-2    -.9566   
    10.83       0.1171E-2    -.9637       0.1655E-2    -.9562   
    10.85       0.1190E-2    -.9635       0.1685E-2    -.9559   
    10.87       0.1209E-2    -.9632       0.1716E-2    -.9556   
    10.89       0.1229E-2    -.9630       0.1748E-2    -.9552   
    10.91       0.1250E-2    -.9627       0.1781E-2    -.9549   
    10.93       0.1271E-2    -.9625       0.1815E-2    -.9545   
    10.95       0.1292E-2    -.9622       0.1850E-2    -.9541   
    10.97       0.1315E-2    -.9620       0.1885E-2    -.9538   
    10.99       0.1337E-2    -.9617       0.1922E-2    -.9534   
    11.01       0.1361E-2    -.9614       0.1960E-2    -.9530   
    11.03       0.1385E-2    -.9612       0.2000E-2    -.9526   
    11.05       0.1410E-2    -.9609       0.2040E-2    -.9522   
    11.07       0.1435E-2    -.9606       0.2082E-2    -.9518   
    11.09       0.1461E-2    -.9603       0.2125E-2    -.9514   
    11.11       0.1488E-2    -.9600       0.2169E-2    -.9509   
    11.13       0.1516E-2    -.9597       0.2215E-2    -.9505   
    11.15       0.1544E-2    -.9594       0.2262E-2    -.9501   
    11.17       0.1574E-2    -.9591       0.2311E-2    -.9496   
    11.19       0.1604E-2    -.9588       0.2361E-2    -.9491   
    11.21       0.1635E-2    -.9585       0.2413E-2    -.9487   
    11.23       0.1667E-2    -.9581       0.2467E-2    -.9482   
    11.25       0.1700E-2    -.9578       0.2523E-2    -.9477   
    11.27       0.1734E-2    -.9575       0.2581E-2    -.9472   
    11.29       0.1769E-2    -.9571       0.2641E-2    -.9467   
    11.31       0.1806E-2    -.9567       0.2703E-2    -.9461   
    11.33       0.1843E-2    -.9564       0.2767E-2    -.9456   
    11.35       0.1882E-2    -.9560       0.2834E-2    -.9450   
    11.37       0.1922E-2    -.9556       0.2903E-2    -.9445   
    11.39       0.1963E-2    -.9553       0.2975E-2    -.9439   
    11.41       0.2006E-2    -.9549       0.3049E-2    -.9433   
    11.43       0.2050E-2    -.9545       0.3127E-2    -.9427   
    11.45       0.2096E-2    -.9540       0.3207E-2    -.9420   
    11.47       0.2143E-2    -.9536       0.3291E-2    -.9414   
    11.49       0.2192E-2    -.9532       0.3378E-2    -.9407   
    11.51       0.2243E-2    -.9527       0.3469E-2    -.9400   
    11.53       0.2296E-2    -.9523       0.3564E-2    -.9394   
    11.55       0.2351E-2    -.9518       0.3662E-2    -.9386   
    11.57       0.2408E-2    -.9514       0.3765E-2    -.9379   
    11.59       0.2467E-2    -.9509       0.3872E-2    -.9371   
    11.61       0.2528E-2    -.9504       0.3985E-2    -.9364   
    11.63       0.2591E-2    -.9499       0.4102E-2    -.9356   
    11.65       0.2658E-2    -.9494       0.4224E-2    -.9347   
    11.67       0.2727E-2    -.9488       0.4353E-2    -.9339   
    11.69       0.2798E-2    -.9483       0.4487E-2    -.9330   
    11.71       0.2873E-2    -.9477       0.4628E-2    -.9321   
    11.73       0.2951E-2    -.9471       0.4776E-2    -.9312   
    11.75       0.3032E-2    -.9465       0.4931E-2    -.9302   
    11.77       0.3117E-2    -.9459       0.5094E-2    -.9292   
    11.79       0.3205E-2    -.9453       0.5265E-2    -.9282   
    11.81       0.3298E-2    -.9447       0.5445E-2    -.9272   
    11.83       0.3395E-2    -.9440       0.5636E-2    -.9261   
    11.85       0.3496E-2    -.9433       0.5836E-2    -.9249   
    11.87       0.3602E-2    -.9426       0.6048E-2    -.9238   
    11.89       0.3714E-2    -.9419       0.6271E-2    -.9226   
    11.91       0.3830E-2    -.9411       0.6508E-2    -.9213   
    11.93       0.3953E-2    -.9404       0.6758E-2    -.9200   
    11.95       0.4082E-2    -.9396       0.7024E-2    -.9186   
    11.97       0.4217E-2    -.9388       0.7305E-2    -.9172   
    11.99       0.4360E-2    -.9379       0.7605E-2    -.9158   
    12.01       0.4510E-2    -.9370       0.7924E-2    -.9143   
    12.03       0.4669E-2    -.9361       0.8263E-2    -.9127   
    12.05       0.4836E-2    -.9352       0.8625E-2    -.9110   
    12.07       0.5013E-2    -.9342       0.9013E-2    -.9093   
    12.09       0.5200E-2    -.9332       0.9427E-2    -.9075   
    12.11       0.5399E-2    -.9322       0.9871E-2    -.9056   
    12.13       0.5609E-2    -.9311       0.1035E-1    -.9037   
    12.15       0.5832E-2    -.9300       0.1086E-1    -.9016   
    12.17       0.6070E-2    -.9288       0.1141E-1    -.8994   
    12.19       0.6323E-2    -.9276       0.1201E-1    -.8972   
    12.21       0.6593E-2    -.9263       0.1266E-1    -.8948   
    12.23       0.6881E-2    -.9250       0.1336E-1    -.8923   
    12.25       0.7188E-2    -.9237       0.1412E-1    -.8897   
    12.27       0.7518E-2    -.9222       0.1494E-1    -.8869   
    12.29       0.7872E-2    -.9207       0.1585E-1    -.8839   
    12.31       0.8252E-2    -.9192       0.1683E-1    -.8808   
    12.33       0.8661E-2    -.9175       0.1792E-1    -.8775   
    12.35       0.9103E-2    -.9158       0.1911E-1    -.8740   
    12.37       0.9580E-2    -.9140       0.2043E-1    -.8703   
    12.39       0.1010E-1    -.9121       0.2189E-1    -.8663   
    12.41       0.1066E-1    -.9101       0.2352E-1    -.8621   
    12.43       0.1127E-1    -.9080       0.2533E-1    -.8575   
    12.45       0.1193E-1    -.9058       0.2736E-1    -.8527   
    12.47247      0.01266     -0.90342      0.02964     -0.84747
    12.49249      0.01346     -0.90094      0.03223     -0.84185
    12.51251      0.01433     -0.89830      0.03516     -0.83579
    12.53253      0.01530     -0.89550      0.03850     -0.82924
    12.55255      0.01637     -0.89253      0.04234     -0.82214
    12.57257      0.01756     -0.88935      0.04678     -0.81443
    12.59259      0.01888     -0.88596      0.05194     -0.80603
    12.61261      0.02036     -0.88233      0.05798     -0.79687
    12.63263      0.02203     -0.87844      0.06511     -0.78687
    12.65265      0.02390     -0.87426      0.07358     -0.77593
    12.67267      0.02603     -0.86975      0.08375     -0.76398
    12.69269      0.02846     -0.86488      0.09606     -0.75095
    12.71271      0.03124     -0.85961      0.11111     -0.73682
    12.73273      0.03445     -0.85390      0.12969     -0.72164
    12.75275      0.03816     -0.84768      0.15284     -0.70566
    12.77277      0.04251     -0.84091      0.18194     -0.68943
    12.79279      0.04762     -0.83352      0.21873     -0.67408
    12.81281      0.05369     -0.82545      0.26525     -0.66178
    12.83283      0.06095     -0.81662      0.32352     -0.65635
    12.85285      0.06972     -0.80700      0.39445     -0.66413
    12.87287      0.08040     -0.79655      0.47556     -0.69420
    12.89289      0.09356     -0.78529      0.55740     -0.75645
    12.91291      0.10991     -0.77335      0.62146     -0.85499
    12.93293      0.13041     -0.76108      0.64596     -0.97911
    12.95295      0.15630     -0.74916      0.62074     -1.10300
    12.97297      0.18906     -0.73898      0.55626     -1.20099
    12.99299      0.23025     -0.73298      0.47434     -1.26265
    13.01301      0.28094     -0.73535      0.39338     -1.29227
    13.03303      0.34023     -0.75237      0.32267     -1.29975
    13.05305      0.40276     -0.79163      0.26463     -1.29413
    13.07307      0.45645     -0.85818      0.21832     -1.28171
    13.09309      0.48469     -0.94763      0.18170     -1.26629
    13.11311      0.47618     -1.04303      0.15274     -1.25000
    13.13313      0.43451     -1.12357      0.12971     -1.23396
    13.15315      0.37495     -1.17766      0.11123     -1.21873
    13.17317      0.31285     -1.20599      0.09626     -1.20453
    13.19319      0.25714     -1.21549      0.08403     -1.19143
    13.21321      0.21080     -1.21341      0.07393     -1.17940
    13.23323      0.17362     -1.20508      0.06551     -1.16838
    13.25325      0.14418     -1.19384      0.05844     -1.15829
    13.27327      0.12092     -1.18158      0.05246     -1.14902
    13.29329      0.10246     -1.16934      0.04735     -1.14051
    13.31331      0.08769     -1.15761      0.04297     -1.13268
    13.33333      0.07576     -1.14662      0.03917     -1.12545
    13.35335      0.06603     -1.13645      0.03588     -1.11876
    13.37337      0.05802     -1.12710      0.03300     -1.11255
    13.39339      0.05137     -1.11852      0.03046     -1.10677
    13.41341      0.04580     -1.11065      0.02823     -1.10139
    13.43343      0.04109     -1.10342      0.02625     -1.09635
    13.45345      0.03708     -1.09678      0.02449     -1.09163
    13.47347      0.03365     -1.09066      0.02292     -1.08719
    13.49349      0.03069     -1.08501      0.02151     -1.08302
    13.51351      0.02812     -1.07977      0.02025     -1.07907
    13.53353      0.02588     -1.07491      0.01911     -1.07534
    13.55355      0.02391     -1.07038      0.01808     -1.07180
    13.57357      0.02218     -1.06616      0.01715     -1.06843
    13.59359      0.02065     -1.06220      0.01631     -1.06522
    13.61361      0.01929     -1.05848      0.01554     -1.06216
    13.63363      0.01808     -1.05499      0.01485     -1.05924
    13.65365      0.01699     -1.05169      0.01421     -1.05643
    13.67       0.1602E-1    -1.049       0.1364E-1    -1.054   
    13.69       0.1515E-1    -1.046       0.1311E-1    -1.051   
    13.71       0.1437E-1    -1.043       0.1264E-1    -1.049   
    13.73       0.1366E-1    -1.040       0.1220E-1    -1.046   
    13.75       0.1302E-1    -1.038       0.1180E-1    -1.044   
    13.77       0.1243E-1    -1.035       0.1144E-1    -1.042   
    13.79       0.1191E-1    -1.033       0.1112E-1    -1.039   
    13.81       0.1143E-1    -1.031       0.1082E-1    -1.037   
    13.83       0.1100E-1    -1.028       0.1056E-1    -1.035   
    13.85       0.1060E-1    -1.026       0.1032E-1    -1.033   
    13.87       0.1025E-1    -1.024       0.1011E-1    -1.031   
    13.89       0.9923E-2    -1.022       0.9918E-2    -1.029   
    13.91       0.9629E-2    -1.020       0.9753E-2    -1.027   
    13.93       0.9364E-2    -1.018       0.9610E-2    -1.025   
    13.95       0.9124E-2    -1.017       0.9489E-2    -1.023   
    13.97       0.8909E-2    -1.015       0.9389E-2    -1.022   
    13.99       0.8716E-2    -1.013       0.9310E-2    -1.020   
    14.01       0.8544E-2    -1.011       0.9251E-2    -1.018   
    14.03       0.8392E-2    -1.010       0.9212E-2    -1.016   
    14.05       0.8259E-2    -1.008       0.9193E-2    -1.014   
    14.07       0.8143E-2    -1.007       0.9195E-2    -1.013   
    14.09       0.8045E-2    -1.005       0.9217E-2    -1.011   
    14.11       0.7963E-2    -1.003       0.9260E-2    -1.009   
    14.13       0.7897E-2    -1.002       0.9325E-2    -1.007   
    14.15       0.7847E-2    -1.000       0.9412E-2    -1.005   
    14.17       0.7812E-2    -.9988       0.9523E-2    -1.003   
    14.19       0.7791E-2    -.9972       0.9658E-2    -1.002   
    14.21       0.7786E-2    -.9957       0.9819E-2    -.9996   
    14.23       0.7795E-2    -.9941       0.1001E-1    -.9977   
    14.25       0.7819E-2    -.9926       0.1023E-1    -.9957   
    14.27       0.7858E-2    -.9911       0.1048E-1    -.9937   
    14.29       0.7912E-2    -.9895       0.1076E-1    -.9916   
    14.31       0.7981E-2    -.9879       0.1109E-1    -.9895   
    14.33       0.8067E-2    -.9864       0.1145E-1    -.9873   
    14.35       0.8169E-2    -.9848       0.1186E-1    -.9851   
    14.37       0.8288E-2    -.9832       0.1232E-1    -.9827   
    14.39       0.8425E-2    -.9815       0.1284E-1    -.9803   
    14.41       0.8581E-2    -.9798       0.1342E-1    -.9778   
    14.43       0.8757E-2    -.9781       0.1408E-1    -.9752   
    14.45       0.8954E-2    -.9764       0.1481E-1    -.9725   
    14.47       0.9173E-2    -.9746       0.1564E-1    -.9696   
    14.49       0.9417E-2    -.9728       0.1657E-1    -.9666   
    14.51       0.9687E-2    -.9710       0.1762E-1    -.9634   
    14.53       0.9985E-2    -.9690       0.1881E-1    -.9600   
    14.55       0.1031E-1    -.9671       0.2017E-1    -.9564   
    14.57       0.1067E-1    -.9650       0.2172E-1    -.9526   
    14.59       0.1107E-1    -.9629       0.2350E-1    -.9485   
    14.61       0.1151E-1    -.9607       0.2554E-1    -.9441   
    14.63       0.1199E-1    -.9584       0.2791E-1    -.9394   
    14.65       0.1252E-1    -.9561       0.3066E-1    -.9344   
    14.67       0.1311E-1    -.9536       0.3388E-1    -.9289   
    14.69       0.1375E-1    -.9510       0.3769E-1    -.9229   
    14.71       0.1447E-1    -.9483       0.4221E-1    -.9165   
    14.73473      0.01526     -0.94550      0.04762     -0.90947
    14.75475      0.01614     -0.94251      0.05417     -0.90186
    14.77477      0.01711     -0.93937      0.06214     -0.89361
    14.79480      0.01820     -0.93604      0.07196     -0.88475
    14.81481      0.01941     -0.93252      0.08416     -0.87535
    14.83483      0.02077     -0.92878      0.09946     -0.86565
    14.85485      0.02231     -0.92479      0.11877     -0.85613
    14.87487      0.02404     -0.92054      0.14322     -0.84777
    14.89489      0.02600     -0.91598      0.17403     -0.84232
    14.91491      0.02824     -0.91109      0.21212     -0.84280
    14.93493      0.03080     -0.90582      0.25711     -0.85383
    14.95495      0.03375     -0.90013      0.30548     -0.88126
    14.97497      0.03716     -0.89398      0.34865     -0.92955
    14.99499      0.04114     -0.88730      0.37394     -0.99663
    15.01501      0.04581     -0.88004      0.37143     -1.07061
    15.03503      0.05133     -0.87214      0.34219     -1.13512
    15.05505      0.05790     -0.86351      0.29726     -1.17982
    15.07508      0.06580     -0.85411      0.24895     -1.20413
    15.09509      0.07538     -0.84388      0.20493     -1.21304
    15.11511      0.08711     -0.83281      0.16803     -1.21230
    15.13513      0.10160     -0.82095      0.13831     -1.20626
    15.15515      0.11968     -0.80850      0.11475     -1.19770
    15.17517      0.14243     -0.79590      0.09613     -1.18819
    15.19519      0.17121     -0.78409      0.08135     -1.17862
    15.21521      0.20759     -0.77479      0.06954     -1.16942
    15.23524      0.25312     -0.77107      0.06000     -1.16079
    15.25525      0.30837     -0.77796      0.05223     -1.15279
    15.27527      0.37114     -0.80258      0.04583     -1.14544
    15.29529      0.43367     -0.85245      0.04051     -1.13869
    15.31531      0.48127     -0.93010      0.03606     -1.13251
    15.33534      0.49739     -1.02633      0.03229     -1.12684
    15.35535      0.47531     -1.12075      0.02909     -1.12164
    15.37537      0.42408     -1.19420      0.02633     -1.11686
    15.39540      0.36065     -1.23963      0.02396     -1.11245
    15.41541      0.29871     -1.26088      0.02189     -1.10838
    15.43543      0.24495     -1.26566      0.02008     -1.10461
    15.45545      0.20094     -1.26080      0.01849     -1.10110
    15.47547      0.16585     -1.25097      0.01708     -1.09785
    15.49549      0.13812     -1.23899      0.01584     -1.09481
    15.52       0.1162       -1.226       0.1472E-1    -1.092   
    15.54       0.9869E-1    -1.214       0.1373E-1    -1.089   
    15.56       0.8466E-1    -1.202       0.1283E-1    -1.087   
    15.58       0.7328E-1    -1.192       0.1202E-1    -1.084   
    15.60       0.6396E-1    -1.182       0.1129E-1    -1.082   
    15.62       0.5626E-1    -1.172       0.1063E-1    -1.080   
    15.64       0.4983E-1    -1.164       0.1002E-1    -1.078   
    15.66       0.4443E-1    -1.156       0.9468E-2    -1.076   
    15.68       0.3984E-1    -1.149       0.8961E-2    -1.075   
    15.70       0.3592E-1    -1.143       0.8495E-2    -1.073   
    15.72       0.3254E-1    -1.137       0.8067E-2    -1.071   
    15.74       0.2962E-1    -1.131       0.7671E-2    -1.070   
    15.76       0.2707E-1    -1.126       0.7306E-2    -1.068   
    15.78       0.2484E-1    -1.122       0.6967E-2    -1.067   
    15.80       0.2287E-1    -1.117       0.6652E-2    -1.066   
    15.82       0.2113E-1    -1.113       0.6360E-2    -1.064   
    15.84       0.1958E-1    -1.110       0.6087E-2    -1.063   
    15.86       0.1820E-1    -1.106       0.5832E-2    -1.062   
    15.88       0.1696E-1    -1.103       0.5594E-2    -1.061   
    15.90       0.1584E-1    -1.100       0.5371E-2    -1.060   
    15.92       0.1483E-1    -1.097       0.5162E-2    -1.059   
    15.94       0.1392E-1    -1.094       0.4966E-2    -1.058   
    15.96       0.1309E-1    -1.091       0.4781E-2    -1.057   
    15.98       0.1233E-1    -1.089       0.4607E-2    -1.056   
    16.00       0.1164E-1    -1.087       0.4443E-2    -1.055   
    16.02       0.1100E-1    -1.085       0.4288E-2    -1.054   
    16.04       0.1042E-1    -1.083       0.4141E-2    -1.053   
    16.06       0.9882E-2    -1.081       0.4003E-2    -1.053   
    16.08       0.9386E-2    -1.079       0.3871E-2    -1.052   
    16.10       0.8928E-2    -1.077       0.3747E-2    -1.051   
    16.12       0.8503E-2    -1.075       0.3629E-2    -1.050   
    16.14       0.8109E-2    -1.074       0.3516E-2    -1.050   
    16.16       0.7742E-2    -1.072       0.3409E-2    -1.049   
    16.18       0.7401E-2    -1.071       0.3308E-2    -1.048   
    16.20       0.7082E-2    -1.069       0.3211E-2    -1.048   
    16.22       0.6783E-2    -1.068       0.3118E-2    -1.047   
    16.24       0.6504E-2    -1.067       0.3030E-2    -1.046   
    16.26       0.6242E-2    -1.065       0.2946E-2    -1.046   
    16.28       0.5997E-2    -1.064       0.2865E-2    -1.045   
    16.30       0.5766E-2    -1.063       0.2788E-2    -1.045   
    16.32       0.5548E-2    -1.062       0.2714E-2    -1.044   
    16.34       0.5343E-2    -1.061       0.2644E-2    -1.044   
    16.36       0.5150E-2    -1.060       0.2576E-2    -1.043   
    16.38       0.4967E-2    -1.059       0.2511E-2    -1.042   
    16.40       0.4794E-2    -1.058       0.2449E-2    -1.042   
    16.42       0.4630E-2    -1.057       0.2389E-2    -1.042   
    16.44       0.4475E-2    -1.056       0.2331E-2    -1.041   
    16.46       0.4328E-2    -1.055       0.2276E-2    -1.041   
    16.48       0.4188E-2    -1.054       0.2222E-2    -1.040   
    16.50       0.4055E-2    -1.053       0.2171E-2    -1.040   
    16.52       0.3929E-2    -1.053       0.2121E-2    -1.039   
    16.54       0.3809E-2    -1.052       0.2074E-2    -1.039   
    16.56       0.3694E-2    -1.051       0.2028E-2    -1.038   
    16.58       0.3584E-2    -1.050       0.1983E-2    -1.038   
    16.60       0.3480E-2    -1.050       0.1941E-2    -1.038   
    16.62       0.3380E-2    -1.049       0.1899E-2    -1.037   
    16.64       0.3285E-2    -1.048       0.1859E-2    -1.037   
    16.66       0.3194E-2    -1.048       0.1821E-2    -1.037   
    16.68       0.3107E-2    -1.047       0.1783E-2    -1.036   
    16.70       0.3023E-2    -1.047       0.1747E-2    -1.036   
    16.72       0.2943E-2    -1.046       0.1712E-2    -1.035   
    16.74       0.2866E-2    -1.045       0.1678E-2    -1.035   
    16.76       0.2792E-2    -1.045       0.1646E-2    -1.035   
    16.78       0.2721E-2    -1.044       0.1614E-2    -1.034   
    16.80       0.2653E-2    -1.044       0.1583E-2    -1.034   
    16.82       0.2588E-2    -1.043       0.1553E-2    -1.034   
    16.84       0.2525E-2    -1.043       0.1524E-2    -1.034   
    16.86       0.2464E-2    -1.042       0.1496E-2    -1.033   
    16.88       0.2406E-2    -1.042       0.1469E-2    -1.033   
    16.90       0.2350E-2    -1.041       0.1442E-2    -1.033   
    16.92       0.2296E-2    -1.041       0.1417E-2    -1.032   
    16.94       0.2243E-2    -1.040       0.1392E-2    -1.032   
    16.96       0.2193E-2    -1.040       0.1367E-2    -1.032   
    16.98       0.2144E-2    -1.039       0.1344E-2    -1.032   
    17.00       0.2097E-2    -1.039       0.1321E-2    -1.031   
    17.02       0.2052E-2    -1.039       0.1298E-2    -1.031   
    17.04       0.2008E-2    -1.038       0.1276E-2    -1.031   
    17.06       0.1966E-2    -1.038       0.1255E-2    -1.031   
    17.08       0.1925E-2    -1.037       0.1235E-2    -1.030   
    17.10       0.1885E-2    -1.037       0.1214E-2    -1.030   
    17.12       0.1847E-2    -1.037       0.1195E-2    -1.030   
    17.14       0.1809E-2    -1.036       0.1176E-2    -1.030   
    17.16       0.1773E-2    -1.036       0.1157E-2    -1.029   
    17.18       0.1738E-2    -1.036       0.1139E-2    -1.029   
    17.20       0.1705E-2    -1.035       0.1121E-2    -1.029   
    17.22       0.1672E-2    -1.035       0.1104E-2    -1.029   
    17.24       0.1640E-2    -1.035       0.1087E-2    -1.028   
    17.26       0.1609E-2    -1.034       0.1071E-2    -1.028   
    17.28       0.1579E-2    -1.034       0.1055E-2    -1.028   
    17.30       0.1550E-2    -1.034       0.1039E-2    -1.028   
    17.32       0.1521E-2    -1.033       0.1024E-2    -1.028   
    17.34       0.1494E-2    -1.033       0.1009E-2    -1.027   
    17.36       0.1467E-2    -1.033       0.9943E-3    -1.027   
    17.38       0.1441E-2    -1.032       0.9800E-3    -1.027   
    17.40       0.1416E-2    -1.032       0.9661E-3    -1.027   
    17.42       0.1391E-2    -1.032       0.9524E-3    -1.027   
    17.44       0.1367E-2    -1.032       0.9391E-3    -1.026   
    17.46       0.1344E-2    -1.031       0.9260E-3    -1.026   
    17.48       0.1321E-2    -1.031       0.9133E-3    -1.026   
    17.50       0.1299E-2    -1.031       0.9008E-3    -1.026   
    17.52       0.1278E-2    -1.031       0.8886E-3    -1.026   
    17.54       0.1257E-2    -1.030       0.8766E-3    -1.026   
    17.56       0.1236E-2    -1.030       0.8649E-3    -1.025   
    17.58       0.1216E-2    -1.030       0.8535E-3    -1.025   
    17.60       0.1197E-2    -1.030       0.8423E-3    -1.025   
    17.62       0.1178E-2    -1.029       0.8313E-3    -1.025   
    17.64       0.1159E-2    -1.029       0.8205E-3    -1.025   
    17.66       0.1141E-2    -1.029       0.8100E-3    -1.024   
    17.68       0.1124E-2    -1.029       0.7996E-3    -1.024   
    17.70       0.1107E-2    -1.028       0.7895E-3    -1.024   
    17.72       0.1090E-2    -1.028       0.7796E-3    -1.024   
    17.74       0.1073E-2    -1.028       0.7698E-3    -1.024   
    17.76       0.1057E-2    -1.028       0.7603E-3    -1.024   
    17.78       0.1042E-2    -1.028       0.7509E-3    -1.024   
    17.80       0.1027E-2    -1.027       0.7417E-3    -1.023   
    17.82       0.1012E-2    -1.027       0.7327E-3    -1.023   
    17.84       0.9970E-3    -1.027       0.7239E-3    -1.023   
    17.86       0.9827E-3    -1.027       0.7152E-3    -1.023   
    17.88       0.9688E-3    -1.027       0.7067E-3    -1.023   
    17.90       0.9551E-3    -1.026       0.6984E-3    -1.023   
    17.92       0.9418E-3    -1.026       0.6902E-3    -1.023   
    17.94       0.9287E-3    -1.026       0.6821E-3    -1.022   
    17.96       0.9159E-3    -1.026       0.6742E-3    -1.022   
    17.98       0.9034E-3    -1.026       0.6665E-3    -1.022   
    18.00       0.8911E-3    -1.025       0.6589E-3    -1.022   
    18.02       0.8791E-3    -1.025       0.6514E-3    -1.022   
    18.04       0.8674E-3    -1.025       0.6440E-3    -1.022   
    18.06       0.8559E-3    -1.025       0.6368E-3    -1.022   
    18.08       0.8446E-3    -1.025       0.6297E-3    -1.022   
    18.10       0.8336E-3    -1.025       0.6227E-3    -1.021   
    18.12       0.8228E-3    -1.024       0.6159E-3    -1.021   
    18.14       0.8122E-3    -1.024       0.6091E-3    -1.021   
    18.16       0.8018E-3    -1.024       0.6025E-3    -1.021   
    18.18       0.7916E-3    -1.024       0.5960E-3    -1.021   
    18.20       0.7816E-3    -1.024       0.5896E-3    -1.021   
    18.22       0.7718E-3    -1.024       0.5833E-3    -1.021   
    18.24       0.7622E-3    -1.023       0.5771E-3    -1.021   
    18.26       0.7528E-3    -1.023       0.5710E-3    -1.020   
    18.28       0.7435E-3    -1.023       0.5650E-3    -1.020   
    18.30       0.7344E-3    -1.023       0.5591E-3    -1.020   
    18.32       0.7255E-3    -1.023       0.5533E-3    -1.020   
    18.34       0.7168E-3    -1.023       0.5476E-3    -1.020   
    18.36       0.7082E-3    -1.023       0.5420E-3    -1.020   
    18.38       0.6998E-3    -1.022       0.5365E-3    -1.020   
    18.40       0.6916E-3    -1.022       0.5310E-3    -1.020   
    18.42       0.6835E-3    -1.022       0.5257E-3    -1.020   
    18.44       0.6755E-3    -1.022       0.5204E-3    -1.019   
    18.46       0.6677E-3    -1.022       0.5152E-3    -1.019   
    18.48       0.6600E-3    -1.022       0.5101E-3    -1.019   
    18.50       0.6524E-3    -1.022       0.5050E-3    -1.019   
    18.52       0.6450E-3    -1.022       0.5001E-3    -1.019   
    18.54       0.6377E-3    -1.021       0.4952E-3    -1.019   
    18.56       0.6306E-3    -1.021       0.4904E-3    -1.019   
    18.58       0.6235E-3    -1.021       0.4857E-3    -1.019   
    18.60       0.6166E-3    -1.021       0.4810E-3    -1.019   
    18.62       0.6098E-3    -1.021       0.4764E-3    -1.019   
    18.64       0.6031E-3    -1.021       0.4719E-3    -1.018   
    18.66       0.5966E-3    -1.021       0.4674E-3    -1.018   
    18.68       0.5901E-3    -1.021       0.4630E-3    -1.018   
    18.70       0.5837E-3    -1.020       0.4587E-3    -1.018   
    18.72       0.5775E-3    -1.020       0.4544E-3    -1.018   
    18.74       0.5713E-3    -1.020       0.4502E-3    -1.018   
    18.76       0.5653E-3    -1.020       0.4460E-3    -1.018   
    18.78       0.5593E-3    -1.020       0.4419E-3    -1.018   
    18.80       0.5535E-3    -1.020       0.4379E-3    -1.018   
    18.82       0.5477E-3    -1.020       0.4339E-3    -1.018   
    18.84       0.5420E-3    -1.020       0.4300E-3    -1.018   
    18.86       0.5365E-3    -1.020       0.4261E-3    -1.017   
    18.88       0.5310E-3    -1.019       0.4223E-3    -1.017   
    18.90       0.5256E-3    -1.019       0.4185E-3    -1.017   
    18.92       0.5202E-3    -1.019       0.4148E-3    -1.017   
    18.94       0.5150E-3    -1.019       0.4111E-3    -1.017   
    18.96       0.5098E-3    -1.019       0.4075E-3    -1.017   
    18.98       0.5048E-3    -1.019       0.4040E-3    -1.017   
    19.00       0.4998E-3    -1.019       0.4004E-3    -1.017   
    19.02       0.4948E-3    -1.019       0.3970E-3    -1.017   
    19.04       0.4900E-3    -1.019       0.3935E-3    -1.017   
    19.06       0.4852E-3    -1.019       0.3902E-3    -1.017   
    19.08       0.4805E-3    -1.018       0.3868E-3    -1.017   
    19.10       0.4758E-3    -1.018       0.3835E-3    -1.016   
    19.12       0.4713E-3    -1.018       0.3803E-3    -1.016   
    19.14       0.4668E-3    -1.018       0.3771E-3    -1.016   
    19.16       0.4623E-3    -1.018       0.3739E-3    -1.016   
    19.18       0.4579E-3    -1.018       0.3708E-3    -1.016   
    19.20       0.4536E-3    -1.018       0.3677E-3    -1.016   
    19.22       0.4494E-3    -1.018       0.3646E-3    -1.016   
    19.24       0.4452E-3    -1.018       0.3616E-3    -1.016   
    19.26       0.4411E-3    -1.018       0.3586E-3    -1.016   
    19.28       0.4370E-3    -1.017       0.3557E-3    -1.016   
    19.30       0.4330E-3    -1.017       0.3528E-3    -1.016   
    19.32       0.4290E-3    -1.017       0.3500E-3    -1.016   
    19.34       0.4251E-3    -1.017       0.3471E-3    -1.016   
    19.36       0.4212E-3    -1.017       0.3443E-3    -1.016   
    19.38       0.4174E-3    -1.017       0.3416E-3    -1.015   
    19.40       0.4137E-3    -1.017       0.3388E-3    -1.015   
    19.42       0.4100E-3    -1.017       0.3362E-3    -1.015   
    19.44       0.4064E-3    -1.017       0.3335E-3    -1.015   
    19.46       0.4028E-3    -1.017       0.3309E-3    -1.015   
    19.48       0.3992E-3    -1.017       0.3283E-3    -1.015   
    19.50       0.3957E-3    -1.017       0.3257E-3    -1.015   
    19.52       0.3923E-3    -1.016       0.3232E-3    -1.015   
    19.54       0.3889E-3    -1.016       0.3207E-3    -1.015   
    19.56       0.3855E-3    -1.016       0.3182E-3    -1.015   
    19.58       0.3822E-3    -1.016       0.3157E-3    -1.015   
    19.60       0.3789E-3    -1.016       0.3133E-3    -1.015   
    19.62       0.3757E-3    -1.016       0.3109E-3    -1.015   
    19.64       0.3725E-3    -1.016       0.3086E-3    -1.015   
    19.66       0.3693E-3    -1.016       0.3062E-3    -1.015   
    19.68       0.3662E-3    -1.016       0.3039E-3    -1.015   
    19.70       0.3631E-3    -1.016       0.3016E-3    -1.014   
    19.72       0.3601E-3    -1.016       0.2994E-3    -1.014   
    19.74       0.3571E-3    -1.016       0.2971E-3    -1.014   
    19.76       0.3542E-3    -1.016       0.2949E-3    -1.014   
    19.78       0.3512E-3    -1.016       0.2928E-3    -1.014   
    19.80       0.3484E-3    -1.015       0.2906E-3    -1.014   
    19.82       0.3455E-3    -1.015       0.2885E-3    -1.014   
    19.84       0.3427E-3    -1.015       0.2863E-3    -1.014   
    19.86       0.3399E-3    -1.015       0.2843E-3    -1.014   
    19.88       0.3372E-3    -1.015       0.2822E-3    -1.014   
    19.90       0.3345E-3    -1.015       0.2802E-3    -1.014   
    19.92       0.3318E-3    -1.015       0.2781E-3    -1.014   
    19.94       0.3291E-3    -1.015       0.2761E-3    -1.014   
    19.96       0.3265E-3    -1.015       0.2742E-3    -1.014   
    19.98       0.3239E-3    -1.015       0.2722E-3    -1.014   
    20.00       0.3214E-3    -1.015       0.2703E-3    -1.014   
# 
# 08/25/2018 at 16:09 YAMBO_RT @ NewLaptop [start]
# 08/25/2018 at 16:09                      [end]
#
# .-Input file : yambo.in
# | optics                         # [R OPT] Optics
# | bse                            # [R BSE] Bethe Salpeter Equation.
# | bsk                            # [R BSK] Bethe Salpeter Equation kernel
# | bss                            # [R BSS] Bethe Salpeter Equation solver
# | tddft                          # [R   K] Use TDDFT kernel
# | BoseTemp= 0.000000     eV      # Bosonic Temperature
# | BSEmod= "coupling"             # [BSE] resonant/retarded/coupling
# | BSKmod= "ALDA"                 # [BSE] IP/Hartree/HF/ALDA/SEX/BSfxc
# | BSSmod= "d"                    # [BSS] (h)aydock/(d)iagonalization/(i)nversion/(t)ddft`
# | BSENGexx=  4945        RL      # [BSK] Exchange components
# | % BEnRange
# |   0.00000 | 20.00000 | eV      # [BSS] Energy range
# | %
# | % BDmRange
# |   0.10000 |  0.10000 | eV      # [BSS] Damping range
# | %
# | BEnSteps= 1000                 # [BSS] Energy steps
# | % BLongDir
# | 0.1000E-4 | 0.000    | 0.000    |        # [BSS] [cc] Electric Field
# | %
# | % BSEBands
# |   1 | 10 |                     # [BSK] Bands range
# | %
